"Time (s)","Gyroscope x (rad/s)","Gyroscope y (rad/s)","Gyroscope z (rad/s)","Absolute (rad/s)"
2.311800001E-2,-1.355245113E0,-6.287711263E-1,-3.995290697E-1,1.546501188E0
3.312100004E-2,-1.342768669E0,-5.362065434E-1,-3.970113099E-1,1.499387587E0
4.312400008E-2,-1.149625540E0,-4.255759418E-1,-4.051664174E-1,1.291090078E0
5.312700011E-2,-8.434383869E-1,-3.003330231E-1,-3.669990301E-1,9.676138307E-1
6.312999991E-2,-5.282072425E-1,-2.925837636E-1,-3.002415597E-1,6.743538714E-1
7.313299994E-2,-2.084769905E-1,-2.733644843E-1,-1.631724834E-1,3.805470486E-1
8.313499996E-2,1.385709792E-1,-1.172648817E-1,-1.855579615E-1,2.595856811E-1
9.313800000E-2,4.380575120E-1,-1.068223938E-1,-2.239762992E-1,5.034588268E-1
1.031410000E-1,5.793123841E-1,-2.190296203E-1,-2.041996568E-1,6.521305949E-1
1.131440001E-1,5.572875142E-1,-3.537425399E-1,-1.631990522E-1,6.799537401E-1
1.231470001E-1,4.522665441E-1,-4.893853366E-1,-1.225096956E-1,6.775335122E-1
1.331499999E-1,3.027757108E-1,-5.922634006E-1,-1.058363467E-1,6.735357444E-1
1.431529999E-1,1.252914816E-1,-6.047049165E-1,-1.133485958E-1,6.278645519E-1
1.531549999E-1,-5.851629376E-2,-5.741667747E-1,-1.496657282E-1,5.962310559E-1
1.631580000E-1,-2.208045423E-1,-5.010619760E-1,-2.162463516E-1,5.887106541E-1
1.731610000E-1,-3.416306973E-1,-3.745204508E-1,-2.913572788E-1,5.846932233E-1
1.831640000E-1,-4.135578871E-1,-2.190070003E-1,-3.464479446E-1,5.822545582E-1
1.931670001E-1,-4.949518442E-1,-2.177883834E-1,-3.306951821E-1,6.338520423E-1
2.031700001E-1,-5.483195186E-1,-1.202514470E-1,-3.382087648E-1,6.553623986E-1
2.131729999E-1,-5.099713206E-1,-6.476283818E-2,-3.843169808E-1,6.418446189E-1
2.231749999E-1,-4.002265036E-1,-4.907362908E-2,-3.810034990E-1,5.547550284E-1
2.331780000E-1,-2.494380474E-1,6.155608967E-2,-3.685892820E-1,4.492956159E-1
2.431810000E-1,-9.656194597E-2,1.762752235E-1,-3.440336287E-1,3.984423440E-1
2.531840000E-1,4.675114527E-3,2.362062633E-1,-2.994726300E-1,3.814434580E-1
2.631870001E-1,4.203686863E-2,2.282641828E-1,-2.425187975E-1,3.356888479E-1
2.731900001E-1,3.632413596E-2,1.889628470E-1,-1.979300082E-1,2.760483446E-1
2.831929999E-1,7.981708273E-3,1.426547319E-1,-1.718299538E-1,2.234717280E-1
2.931949999E-1,-2.531722374E-2,8.197571337E-2,-1.572429091E-1,1.791265247E-1
3.031980000E-1,-6.720528752E-2,3.711875528E-2,-1.520481557E-1,1.703320120E-1
3.132010000E-1,-1.105070189E-1,4.721459933E-3,-1.377270967E-1,1.766432749E-1
3.232040000E-1,-1.704931259E-1,-1.692204922E-2,-1.214208230E-1,2.099935190E-1
3.332070000E-1,-2.318616807E-1,-1.918387227E-2,-1.020303443E-1,2.540434040E-1
3.432100001E-1,-2.871336937E-1,-1.943364367E-2,-7.681091130E-2,2.978646348E-1
3.532130001E-1,-3.933438361E-1,-1.294080466E-1,-2.669836394E-2,4.149441150E-1
3.632149999E-1,-5.083106756E-1,-2.129372954E-1,4.645547271E-2,5.530643233E-1
3.732179999E-1,-5.584617853E-1,-3.171258271E-1,1.047856063E-1,6.507137459E-1
3.832210000E-1,-5.275267363E-1,-3.987146914E-1,1.384910941E-1,6.756016916E-1
3.932240000E-1,-4.420177341E-1,-4.326514900E-1,1.492770761E-1,6.362787396E-1
4.032270000E-1,-3.149220943E-1,-4.272873700E-1,1.481332481E-1,5.510842778E-1
4.132300001E-1,-1.620070189E-1,-4.123108387E-1,1.546448469E-1,4.692137366E-1
4.232330001E-1,1.009924058E-2,-3.417373300E-1,1.448324323E-1,3.712988430E-1
4.332349999E-1,1.659994870E-1,-2.106823623E-1,1.226331443E-1,2.949267291E-1
4.432379999E-1,2.937206924E-1,-6.822215021E-2,1.022591591E-1,3.184070391E-1
4.532410000E-1,3.812568784E-1,4.927150905E-2,9.734793752E-2,3.965616092E-1
4.632440000E-1,4.289908409E-1,1.273237020E-1,9.942413867E-2,4.583989813E-1
4.732470000E-1,4.219071269E-1,1.361967176E-1,1.266943067E-1,4.610928507E-1
4.832500000E-1,3.419350684E-1,9.453955293E-2,1.693874449E-1,3.931277458E-1
4.932520001E-1,1.947376579E-1,-2.430891618E-3,2.256218493E-1,2.980501359E-1
5.032550001E-1,1.237265393E-2,-9.918645769E-2,2.925846577E-1,3.091873507E-1
5.132579999E-1,-1.657182425E-1,-1.529459655E-1,3.556985259E-1,4.211608310E-1
5.232609999E-1,-2.924942970E-1,-1.914456785E-1,4.097793102E-1,5.386310840E-1
5.332640000E-1,-3.645032048E-1,-2.110472918E-1,4.820619226E-1,6.401462668E-1
5.432670000E-1,-3.997573256E-1,-1.581230909E-1,5.060207844E-1,6.639773080E-1
5.532700000E-1,-3.652259707E-1,-6.667307019E-2,5.027200580E-1,6.249502098E-1
5.632720001E-1,-2.981867492E-1,-1.735345833E-2,4.926362932E-1,5.761137017E-1
5.732750001E-1,-2.506900728E-1,2.925718762E-2,4.792882502E-1,5.416813846E-1
5.832779999E-1,-2.728965580E-1,1.182754710E-1,4.649300873E-1,5.519253614E-1
5.932809999E-1,-3.639511764E-1,2.857167125E-1,4.855961502E-1,6.707444518E-1
6.032840000E-1,-4.830333591E-1,5.270404220E-1,5.258743167E-1,8.874889460E-1
6.132870000E-1,-6.002458334E-1,7.201460004E-1,6.196550727E-1,1.123778328E0
6.232900000E-1,-6.820173860E-1,7.594148517E-1,6.856740117E-1,1.229637134E0
6.332920000E-1,-6.874654889E-1,6.683343649E-1,7.132012248E-1,1.194962597E0
6.432950001E-1,-5.783688426E-1,5.045973659E-1,7.129573226E-1,1.047586351E0
6.532980001E-1,-3.649684489E-1,3.548159599E-1,6.526950598E-1,8.277120122E-1
6.633009999E-1,-6.839989871E-2,2.688379288E-1,5.591326356E-1,6.241647878E-1
6.733039999E-1,2.448263317E-1,2.079186738E-1,4.524631500E-1,5.548810771E-1
6.833068333E-1,4.759064317E-1,1.012215316E-1,3.975719213E-1,6.283280694E-1
6.933098333E-1,5.011947155E-1,-6.326914765E-3,4.687642455E-1,6.862769780E-1
7.033118333E-1,3.776956797E-1,4.132769257E-2,5.180755854E-1,6.424673663E-1
7.133148334E-1,2.048107088E-1,1.079612896E-1,5.093734264E-1,5.595215403E-1
7.233178334E-1,3.036141023E-2,1.717059314E-1,4.692009091E-1,5.005539284E-1
7.333208334E-1,-1.120826453E-1,2.700875103E-1,4.371140897E-1,5.259073208E-1
7.433238334E-1,-2.191995233E-1,3.508090079E-1,4.743093848E-1,6.293526703E-1
7.533268332E-1,-2.852286398E-1,3.735579550E-1,5.123139024E-1,6.952456093E-1
7.633288333E-1,-3.241371810E-1,3.346470296E-1,6.202979088E-1,7.757725454E-1
7.733318333E-1,-3.553575277E-1,2.446054369E-1,7.054145336E-1,8.268739061E-1
7.833348333E-1,-3.619185090E-1,1.674145013E-1,7.418529987E-1,8.422342276E-1
7.933378334E-1,-3.637032211E-1,1.212231517E-1,7.652944326E-1,8.559501470E-1
8.033408334E-1,-3.584240377E-1,9.826590866E-2,7.635327578E-1,8.491797523E-1
8.133438334E-1,-3.515011668E-1,9.407167882E-2,7.329479456E-1,8.183002151E-1
8.233468332E-1,-3.080232143E-1,1.135955825E-1,6.731751561E-1,7.489639830E-1
8.333488333E-1,-2.110559642E-1,8.773715794E-2,6.000918150E-1,6.421468799E-1
8.433518333E-1,-1.114662513E-1,5.475683883E-2,5.428162813E-1,5.568415860E-1
8.533548333E-1,-3.675550967E-2,5.629337579E-2,4.913178682E-1,4.958963191E-1
8.633578334E-1,-3.679811954E-2,9.878437966E-2,4.609301388E-1,4.728308875E-1
8.733608334E-1,-1.239312440E-1,1.551560909E-1,4.322105050E-1,4.756451266E-1
8.833638334E-1,-2.652833164E-1,2.674871385E-1,3.874033391E-1,5.403757530E-1
8.933668332E-1,-4.209192097E-1,3.966992199E-1,3.369114995E-1,6.693673212E-1
9.033688332E-1,-5.275820494E-1,5.007231236E-1,3.048382401E-1,7.886652128E-1
9.133718333E-1,-5.328679681E-1,5.826507807E-1,2.929569185E-1,8.421721675E-1
9.233748333E-1,-4.442760348E-1,6.303098798E-1,2.749843001E-1,8.187112464E-1
9.333778333E-1,-2.866781950E-1,5.807195306E-1,2.493316978E-1,6.939638724E-1
9.433808334E-1,-1.172574684E-1,4.809109271E-1,2.094924003E-1,5.375050692E-1
9.533838334E-1,2.358721569E-2,3.465358615E-1,1.697849184E-1,3.866139917E-1
9.633858334E-1,1.259141117E-1,2.146742344E-1,1.255972087E-1,2.787723969E-1
9.733888332E-1,2.098292559E-1,1.072503105E-1,9.272847325E-2,2.532380609E-1
9.833918333E-1,2.611164153E-1,5.303234980E-2,6.107068062E-2,2.733566178E-1
9.933948333E-1,2.874915302E-1,1.872494258E-2,4.343752936E-2,2.913568643E-1
1.003397833E0,3.132368624E-1,-1.936811395E-2,4.055252671E-2,3.164442498E-1
1.013400833E0,3.329101205E-1,-5.120157078E-2,3.787585348E-2,3.389473845E-1
1.023403833E0,3.352409005E-1,-1.199694499E-1,3.731685877E-2,3.580107236E-1
1.033405833E0,3.063825667E-1,-2.540643215E-1,3.629497439E-2,3.996702163E-1
1.043408833E0,2.582773566E-1,-3.772181869E-1,3.650137037E-2,4.586208712E-1
1.053411833E0,1.873142570E-1,-5.279437900E-1,2.817476168E-2,5.608966870E-1
1.063414833E0,7.162788510E-2,-6.841927767E-1,3.971690312E-2,6.890774572E-1
1.073417833E0,-9.566917270E-2,-7.706117630E-1,5.478898808E-2,7.784580355E-1
1.083420833E0,-2.364787459E-1,-8.096172214E-1,1.806026697E-2,8.436399799E-1
1.093423833E0,-3.120610118E-1,-7.406726480E-1,-3.574668616E-2,8.045221390E-1
1.103425833E0,-3.544268310E-1,-5.033525229E-1,-2.527060919E-2,6.161337067E-1
1.113428833E0,-3.689884841E-1,-3.137505054E-1,-5.896455422E-2,4.879228420E-1
1.123431833E0,-3.776858151E-1,-1.576173604E-1,-1.089004278E-1,4.234962932E-1
1.133434833E0,-4.085157216E-1,-3.891953826E-2,-1.821735054E-1,4.489844221E-1
1.143437833E0,-4.187646210E-1,3.762770072E-2,-2.794798017E-1,5.048649435E-1
1.153440833E0,-3.643152118E-1,2.602965012E-2,-3.773061633E-1,5.251314665E-1
1.163442833E0,-2.366416752E-1,-1.057469938E-2,-4.604087770E-1,5.177715217E-1
1.173445833E0,-6.432764977E-2,2.414205298E-2,-4.900099635E-1,4.948036475E-1
1.183448833E0,1.336645186E-1,7.008157670E-2,-4.870232046E-1,5.098717807E-1
1.193451833E0,3.437593281E-1,5.165492743E-2,-4.599835277E-1,5.765618379E-1
1.203454833E0,5.513029695E-1,-1.066633314E-1,-4.285960495E-1,7.064039949E-1
1.213457833E0,7.020319700E-1,-3.637114167E-1,-4.068524837E-1,8.891927941E-1
1.223460833E0,7.162724137E-1,-6.749936342E-1,-3.901677728E-1,1.058722564E0
1.233462833E0,5.943025947E-1,-9.575594068E-1,-3.758802116E-1,1.188024211E0
1.243465833E0,3.989722729E-1,-1.145614624E0,-3.786829412E-1,1.270831425E0
1.253468833E0,1.923018396E-1,-1.199840546E0,-4.090461135E-1,1.282152899E0
1.263471833E0,1.212807000E-2,-1.190099478E0,-4.403923154E-1,1.269026890E0
1.273474833E0,-1.559063643E-1,-1.151961327E0,-4.507452846E-1,1.246793088E0
1.283477833E0,-2.936053872E-1,-9.422667027E-1,-4.386241734E-1,1.080028624E0
1.293480833E0,-4.038226604E-1,-6.114985943E-1,-4.226997197E-1,8.459777331E-1
1.303482833E0,-4.811936319E-1,-2.664517164E-1,-4.289687872E-1,6.975371309E-1
1.313485833E0,-5.147571564E-1,5.440342799E-2,-4.612473845E-1,6.933136467E-1
1.323488833E0,-4.911170304E-1,3.028697073E-1,-5.017474294E-1,7.646414062E-1
1.333491833E0,-4.217857718E-1,4.239033163E-1,-5.338631868E-1,8.016278196E-1
1.343494833E0,-3.119410276E-1,3.808026910E-1,-5.464202762E-1,7.354542898E-1
1.353497833E0,-1.762364507E-1,2.210231870E-1,-5.466979146E-1,6.154584840E-1
1.363499833E0,-3.094982915E-2,3.621631861E-2,-5.475448370E-1,5.496133752E-1
1.373502833E0,1.135166362E-1,-8.519895375E-2,-5.447518826E-1,5.629382754E-1
1.383505833E0,2.347272187E-1,-1.027782187E-1,-5.277652144E-1,5.866824959E-1
1.393508833E0,3.185294867E-1,-7.559981197E-2,-4.915900230E-1,5.906243444E-1
1.403511833E0,3.497902155E-1,-6.866414100E-2,-4.320313334E-1,5.601062687E-1
1.413514833E0,3.229813874E-1,-5.027351901E-2,-3.795010448E-1,5.008646986E-1
1.423517833E0,2.536984682E-1,1.739793830E-2,-3.535621464E-1,4.355132517E-1
1.433519833E0,1.645919234E-1,9.266436100E-2,-3.377627134E-1,3.869894516E-1
1.443522833E0,5.883726105E-2,1.551242769E-1,-3.225052059E-1,3.626775046E-1
1.453525833E0,-4.403744265E-2,2.095280141E-1,-3.035579622E-1,3.714683317E-1
1.463528833E0,-1.424026340E-1,2.569541037E-1,-2.691965401E-1,3.984604106E-1
1.473531833E0,-2.340811193E-1,2.725215256E-1,-2.163764685E-1,4.193813640E-1
1.483534833E0,-3.165341616E-1,2.761687338E-1,-1.407922357E-1,4.430411929E-1
1.493536833E0,-3.902360201E-1,2.633808255E-1,-9.616465122E-2,4.805218525E-1
1.503539833E0,-4.129733145E-1,2.736630142E-1,-4.384365678E-2,4.973536670E-1
1.513542833E0,-3.696461320E-1,3.057655096E-1,9.375966154E-3,4.798111279E-1
1.523545833E0,-2.551456392E-1,2.428544462E-1,2.347154357E-2,3.530276088E-1
1.533548833E0,-7.908436656E-2,8.212453127E-2,2.932627685E-2,1.177234309E-1
1.543551833E0,1.268946230E-1,-8.637340367E-2,3.894108534E-2,1.583635638E-1
1.553554833E0,3.356958628E-1,-1.774041653E-1,5.962664634E-2,3.843426688E-1
1.563556833E0,5.032135248E-1,-1.952470839E-1,8.393517882E-2,5.462512147E-1
1.573559833E0,5.971083641E-1,-1.998617053E-1,1.183978096E-1,6.407036296E-1
1.583562833E0,6.055364609E-1,-1.728319526E-1,1.451383382E-1,6.462278441E-1
1.593565833E0,5.135571361E-1,-7.456615567E-2,1.673031896E-1,5.452443497E-1
1.603568833E0,3.480323553E-1,7.134444267E-2,1.836392879E-1,3.999249154E-1
1.613571833E0,1.581750512E-1,1.859280020E-1,1.981665641E-1,3.144178047E-1
1.623573833E0,3.039531410E-3,2.167277336E-1,2.153439522E-1,3.055375051E-1
1.633576833E0,-1.204992384E-1,1.690300703E-1,2.346020341E-1,3.132560383E-1
1.643579833E0,-2.308097631E-1,5.957707390E-2,2.690617442E-1,3.594673791E-1
1.653582833E0,-3.562475741E-1,-4.382425547E-2,3.095331788E-1,4.739659146E-1
1.663585833E0,-4.809863269E-1,-4.096016288E-3,3.461375237E-1,5.926008854E-1
1.673588833E0,-5.781142712E-1,1.203349158E-1,3.679122627E-1,6.957413568E-1
1.683590708E0,-5.832237601E-1,3.449999690E-1,3.755360842E-1,7.747272317E-1
1.693593708E0,-4.797476828E-1,6.303160787E-1,3.720601797E-1,8.751485448E-1
1.703596708E0,-2.693291903E-1,8.468592763E-1,3.682220280E-1,9.619232342E-1
1.713599708E0,3.420306742E-2,9.251172543E-1,3.624848723E-1,9.941866357E-1
1.723602708E0,3.759721220E-1,8.631388545E-1,3.938254714E-1,1.020520564E0
1.733605708E0,6.466820836E-1,6.302528381E-1,4.529570639E-1,1.010240793E0
1.743608708E0,7.715441585E-1,3.289515674E-1,5.177256465E-1,9.856618929E-1
1.753610708E0,7.413735986E-1,9.231864661E-2,5.674080849E-1,9.381415032E-1
1.763613708E0,5.999448299E-1,-4.362427816E-2,6.096106768E-1,8.564239919E-1
1.773616708E0,4.059646428E-1,-7.889883965E-2,6.431400776E-1,7.646315959E-1
1.783619708E0,2.020743489E-1,-3.169111162E-2,6.670177579E-1,6.976754678E-1
1.793622708E0,3.538804129E-2,5.433539301E-2,6.750777960E-1,6.781848413E-1
1.803625708E0,-6.836818159E-2,1.083458960E-1,6.709805727E-1,6.831017277E-1
1.813628708E0,-1.098089889E-1,8.190400153E-2,6.619316936E-1,6.759584650E-1
1.823630708E0,-1.070819125E-1,-8.096463978E-3,6.473809481E-1,6.562272325E-1
1.833633708E0,-9.482903779E-2,-1.026924029E-1,6.415360570E-1,6.565872284E-1
1.843636708E0,-9.693825990E-2,-1.471895576E-1,6.386497617E-1,6.625219318E-1
1.853639708E0,-1.220497042E-1,-1.527129263E-1,6.398839355E-1,6.690805774E-1
1.863642708E0,-1.559837162E-1,-1.223278493E-1,6.416083574E-1,6.715328039E-1
1.873645708E0,-1.944446564E-1,-3.781001642E-2,6.354280710E-1,6.655878268E-1
1.883647708E0,-2.127320468E-1,1.020059437E-1,6.166282892E-1,6.602201022E-1
1.893650708E0,-2.090291679E-1,2.716663778E-1,5.784807205E-1,6.724104088E-1
1.903653708E0,-1.827221960E-1,4.495285153E-1,5.355241895E-1,7.226682811E-1
1.913656708E0,-1.508814394E-1,5.856020451E-1,4.872784615E-1,7.766178358E-1
1.923659708E0,-1.057571024E-1,6.912683249E-1,4.385449886E-1,8.254442251E-1
1.933662708E0,-6.255576760E-2,7.486290336E-1,3.663374782E-1,8.358000968E-1
1.943664708E0,-1.685352623E-2,7.517853975E-1,3.041646481E-1,8.111605627E-1
1.953667708E0,1.850132272E-2,7.160770893E-1,2.669488490E-1,7.644412239E-1
1.963670708E0,3.218464553E-2,6.298609972E-1,2.158379853E-1,6.665934016E-1
1.973673708E0,3.437277302E-2,5.216894746E-1,1.768235713E-1,5.519130102E-1
1.983676708E0,3.529369459E-2,4.227852821E-1,1.410437375E-1,4.470865415E-1
1.993679708E0,3.108165972E-2,3.469291329E-1,8.215838671E-2,3.578769249E-1
2.003682708E0,1.200969703E-2,2.776688337E-1,2.203326114E-2,2.788004280E-1
2.013684708E0,-2.147755027E-2,1.993717551E-1,-2.666621469E-2,2.022905557E-1
2.023687708E0,-5.307063088E-2,1.214074567E-1,-7.329417020E-2,1.514209292E-1
2.033690708E0,-7.040740550E-2,3.274070844E-2,-1.111797541E-1,1.356100825E-1
2.043693708E0,-5.018442497E-2,-4.526168108E-2,-1.346392781E-1,1.506480384E-1
2.053696708E0,1.189776883E-2,-6.593348086E-2,-1.580484509E-1,1.716627323E-1
2.063699708E0,1.092805117E-1,-4.340101406E-2,-1.803875864E-1,2.153266346E-1
2.073701708E0,1.946055591E-1,-5.034223944E-2,-1.873577684E-1,2.747882787E-1
2.083704708E0,2.268063724E-1,-1.406305879E-1,-2.332070172E-1,3.544059899E-1
2.093707708E0,1.920309365E-1,-2.913204134E-1,-2.509171665E-1,4.297707392E-1
2.103710708E0,8.691118658E-2,-4.869026840E-1,-2.940273583E-1,5.753953992E-1
2.113713708E0,-6.064648181E-2,-6.426744461E-1,-3.557356000E-1,7.370591947E-1
2.123716708E0,-1.991740018E-1,-7.219053507E-1,-4.170340896E-1,8.571668742E-1
2.133718708E0,-2.838365734E-1,-7.849936485E-1,-4.802801013E-1,9.630406037E-1
2.143721708E0,-3.155979514E-1,-8.278849125E-1,-5.429629087E-1,1.039136283E0
2.153724708E0,-3.070591390E-1,-8.290562630E-1,-6.080970764E-1,1.073033856E0
2.163727708E0,-3.033483028E-1,-7.901133895E-1,-6.835910678E-1,1.087932033E0
2.173730708E0,-3.262003660E-1,-7.580453157E-1,-7.522230744E-1,1.116637333E0
2.183733708E0,-3.512212932E-1,-7.967267036E-1,-7.945659757E-1,1.178755669E0
2.193735708E0,-3.557574749E-1,-8.791688681E-1,-7.949082851E-1,1.237489580E0
2.203738708E0,-3.035421968E-1,-9.454767704E-1,-7.800949812E-1,1.262779620E0
2.213741708E0,-1.953494996E-1,-9.206866622E-1,-7.691720724E-1,1.215504436E0
2.223744708E0,-2.994855493E-2,-8.751341105E-1,-7.603192329E-1,1.159673214E0
2.233747708E0,1.665553302E-1,-8.631428480E-1,-7.502527833E-1,1.155696973E0
2.243750708E0,3.634545505E-1,-8.987569809E-1,-7.498040795E-1,1.225589441E0
2.253753708E0,5.136056542E-1,-9.259403348E-1,-7.639479041E-1,1.305669434E0
2.263755708E0,5.854441524E-1,-9.147300124E-1,-7.829833627E-1,1.338857273E0
2.273758708E0,5.780646205E-1,-8.659272194E-1,-8.185995817E-1,1.324422112E0
2.283761708E0,5.040833354E-1,-7.906414866E-1,-8.659130335E-1,1.276330424E0
2.293764708E0,3.737685978E-1,-6.903165579E-1,-9.131765366E-1,1.204213977E0
2.303767708E0,2.153334171E-1,-5.967109799E-1,-9.511921406E-1,1.143328020E0
2.313770708E0,5.789305642E-2,-5.082147717E-1,-9.779791236E-1,1.103665269E0
2.323772708E0,-7.115201652E-2,-4.114983976E-1,-9.910592437E-1,1.075449657E0
2.333775708E0,-1.703936607E-1,-2.754111588E-1,-9.893444777E-1,1.041003267E0
2.343778708E0,-2.498642504E-1,-1.008870080E-1,-9.702624083E-1,1.006985339E0
2.353781708E0,-3.007135093E-1,6.578925252E-2,-9.329642653E-1,9.824353215E-1
2.363784708E0,-3.345348537E-1,1.733322293E-1,-8.866881132E-1,9.634175835E-1
2.373787708E0,-3.397856653E-1,2.107316703E-1,-8.310105205E-1,9.221933747E-1
2.383789708E0,-3.183051348E-1,2.200040072E-1,-7.757624984E-1,8.669067862E-1
2.393792708E0,-2.626819909E-1,1.935442835E-1,-7.170002460E-1,7.877503226E-1
2.403795708E0,-1.826888919E-1,1.552621424E-1,-6.605689526E-1,7.027324563E-1
2.413798708E0,-8.986484259E-2,1.181444451E-1,-6.168062687E-1,6.344160882E-1
2.423801708E0,5.903495476E-3,1.090558693E-1,-5.801193714E-1,5.903105276E-1
2.433804708E0,8.968035132E-2,1.181193367E-1,-5.558112860E-1,5.752572718E-1
2.443807708E0,1.592410505E-1,1.518464088E-1,-5.327166319E-1,5.763697198E-1
2.453809708E0,2.040049136E-1,2.033402026E-1,-5.149475336E-1,5.900306815E-1
2.463812708E0,2.138516754E-1,2.218108177E-1,-5.081927180E-1,5.942999382E-1
2.473815708E0,1.888328642E-1,1.806881279E-1,-4.970457852E-1,5.615697309E-1
2.483818708E0,1.284115911E-1,1.133674234E-1,-5.090029240E-1,5.370527777E-1
2.493821708E0,9.117268026E-3,1.890150160E-1,-4.611230493E-1,4.984418395E-1
2.503824708E0,-1.493519992E-1,3.416053653E-1,-3.602704704E-1,5.184544889E-1
2.513826708E0,-3.135532439E-1,3.490940928E-1,-2.454668432E-1,5.295623604E-1
2.523829708E0,-4.640500844E-1,1.640520692E-1,-1.516149044E-1,5.150171273E-1
2.533832708E0,-5.920345187E-1,-2.437718213E-2,-5.193801224E-2,5.948080997E-1
2.543835708E0,-7.101337314E-1,-1.909491271E-1,3.348953649E-2,7.361202583E-1
2.553838708E0,-7.939681411E-1,-3.449987471E-1,9.718845785E-2,8.711229195E-1
2.563841708E0,-8.369763494E-1,-4.599165618E-1,1.511185318E-1,9.668968217E-1
2.573843708E0,-8.357711434E-1,-5.104445815E-1,1.703630388E-1,9.940274845E-1
2.583846708E0,-7.916191220E-1,-4.637678266E-1,1.777280122E-1,9.345205603E-1
2.593849708E0,-7.257595658E-1,-3.103924692E-1,2.080103755E-1,8.162957483E-1
2.603852708E0,-6.653058529E-1,-7.429097593E-2,2.407217175E-1,7.114056313E-1
2.613855708E0,-6.331844926E-1,1.077355742E-1,2.764331698E-1,6.992459174E-1
2.623858708E0,-6.334303021E-1,1.724338830E-1,3.412576914E-1,7.398812091E-1
2.633861708E0,-6.600500941E-1,1.546588689E-1,4.114847183E-1,7.930354128E-1
2.643863708E0,-6.785225272E-1,1.409345418E-1,4.646480680E-1,8.343579520E-1
2.653866708E0,-6.650404334E-1,1.547379345E-1,5.037290454E-1,8.485078418E-1
2.663869708E0,-5.953295827E-1,1.311942637E-1,5.471289754E-1,8.191332996E-1
2.673872708E0,-4.809263945E-1,6.457076967E-2,5.963925123E-1,7.688586411E-1
2.683876083E0,-3.377956152E-1,-5.841454118E-2,6.287301779E-1,7.161143574E-1
2.693879083E0,-1.429945230E-1,-2.393428832E-1,6.538026929E-1,7.107674800E-1
2.703881083E0,1.100180149E-1,-4.264389873E-1,6.603327990E-1,7.937213484E-1
2.713884083E0,4.070804417E-1,-4.927044511E-1,6.328741908E-1,8.994453310E-1
2.723887083E0,7.347464561E-1,-3.326338232E-1,5.692531466E-1,9.871913493E-1
2.733890083E0,1.061395288E0,1.004524678E-1,5.078299642E-1,1.180907247E0
2.743893083E0,1.373080492E0,5.911814570E-1,4.704107046E-1,1.567205087E0
2.753896083E0,1.652304292E0,9.318018556E-1,4.722769558E-1,1.954842626E0
2.763898083E0,1.893940568E0,1.039575219E0,4.935303032E-1,2.216145228E0
2.773901083E0,2.078700542E0,9.597766995E-1,5.202463865E-1,2.347940281E0
2.783904083E0,2.191925287E0,8.077858686E-1,5.506445169E-1,2.400054970E0
2.793907083E0,2.200067282E0,6.713391542E-1,5.774337649E-1,2.371586401E0
2.803910083E0,2.120271206E0,6.063241959E-1,5.988802314E-1,2.285133814E0
2.813913083E0,1.981533051E0,5.858847499E-1,6.184527874E-1,2.156900095E0
2.823915083E0,1.818698049E0,5.994306803E-1,6.384653449E-1,2.018568237E0
2.833918083E0,1.655296564E0,6.191673279E-1,6.479014158E-1,1.882325992E0
2.843921083E0,1.512013793E0,6.260728836E-1,6.457213163E-1,1.759292183E0
2.853924083E0,1.375152469E0,5.504351854E-1,5.607437491E-1,1.583810834E0
2.863927083E0,1.298959970E0,5.260132551E-1,4.794164002E-1,1.481157329E0
2.873930083E0,1.256366491E0,4.921376109E-1,4.155655801E-1,1.411860808E0
2.883932083E0,1.212991118E0,4.487805367E-1,3.399389684E-1,1.337277056E0
2.893935083E0,1.143600821E0,4.167778790E-1,2.756774426E-1,1.248008290E0
2.903938083E0,1.059219360E0,3.946387768E-1,2.421313226E-1,1.155990050E0
2.913941083E0,9.667038321E-1,3.355267346E-1,2.406652868E-1,1.051196589E0
2.923944083E0,8.612557054E-1,4.420407489E-2,2.856394053E-1,9.084631308E-1
2.933947083E0,7.054982781E-1,-3.489440978E-1,2.736575603E-1,8.332936242E-1
2.943949083E0,5.284201503E-1,-6.894447207E-1,2.633913457E-1,9.077096888E-1
2.953952083E0,3.693128526E-1,-7.902073860E-1,2.844492197E-1,9.174590207E-1
2.963955083E0,2.464639097E-1,-4.462979138E-1,2.767100632E-1,5.800816716E-1
2.973958083E0,1.100445986E-1,3.824637532E-1,1.725662798E-1,4.337827303E-1
2.983961083E0,-8.725196123E-3,1.023055196E0,-1.022270136E-2,1.023143473E0
2.993964083E0,-1.532895565E-1,1.089448214E0,-1.136160344E-1,1.106030606E0
3.003966083E0,-2.936653197E-1,8.485274315E-1,-8.941802382E-2,9.023489929E-1
3.013969083E0,-4.578870237E-1,7.100824118E-1,-5.790766701E-2,8.468948316E-1
3.023972083E0,-6.890648603E-1,6.813687086E-1,-5.828956142E-2,9.708096476E-1
3.033975083E0,-9.964818358E-1,6.246820688E-1,-4.860576987E-2,1.177100785E0
3.043978083E0,-1.350274444E0,5.354059935E-1,-3.549556434E-2,1.452983340E0
3.053981083E0,-1.733351231E0,4.161998332E-1,-2.994988114E-2,1.782870098E0
3.063984083E0,-2.122378588E0,2.508601546E-1,-2.098062262E-2,2.137255687E0
3.073986083E0,-2.516798258E0,4.169725999E-2,1.875985041E-2,2.517213552E0
3.083989083E0,-2.893927574E0,-1.435381025E-1,8.297877759E-2,2.898673053E0
3.093992083E0,-3.228961229E0,-2.936264873E-1,1.673250794E-1,3.246598961E0
3.103995083E0,-3.477834940E0,-4.594666064E-1,2.158169895E-1,3.514686672E0
3.113998083E0,-3.585133791E0,-7.649067640E-1,2.218378037E-1,3.672530281E0
3.124001083E0,-3.513495207E0,-9.926938415E-1,2.223917395E-1,3.657806408E0
3.134003083E0,-3.277592659E0,-1.077717900E0,1.370693594E-1,3.452952001E0
3.144006083E0,-2.978789806E0,-1.125303030E0,-5.410379171E-2,3.184717074E0
3.154009083E0,-2.724265337E0,-1.118217707E0,-2.485133857E-1,2.955298863E0
3.164012083E0,-2.533456564E0,-9.690771699E-1,-3.584531844E-1,2.736055812E0
3.174015083E0,-2.328324556E0,-8.287162781E-1,-3.952213526E-1,2.502811584E0
3.184018083E0,-1.997709274E0,-8.360155225E-1,-4.040750265E-1,2.202961853E0
3.194020083E0,-1.512409329E0,-9.720330834E-1,-3.954500258E-1,1.840818030E0
3.204023083E0,-9.705485106E-1,-1.174276233E0,-4.129491150E-1,1.578422014E0
3.214026083E0,-4.582450688E-1,-1.409003735E0,-4.549808204E-1,1.549931487E0
3.224029083E0,-7.958335802E-3,-1.558129072E0,-4.885635674E-1,1.632949448E0
3.234032083E0,3.815105855E-1,-1.463055253E0,-5.245937109E-1,1.600399813E0
3.244035083E0,8.016650081E-1,-1.036372066E0,-6.031340361E-1,1.442395407E0
3.254037083E0,1.251875043E0,-7.000036240E-1,-7.189480066E-1,1.604394725E0
3.264040083E0,1.704346895E0,-5.343997478E-1,-8.093583584E-1,1.960979955E0
3.274043083E0,2.121785402E0,-3.204197884E-1,-8.655729890E-1,2.313840689E0
3.284046083E0,2.505145788E0,-9.526551515E-2,-8.969839215E-1,2.662594805E0
3.294049083E0,2.861311197E0,-4.689409956E-2,-9.240174890E-1,3.007176274E0
3.304052083E0,3.138512850E0,-8.836484700E-2,-9.571469426E-1,3.282407885E0
3.314054083E0,3.330131769E0,-2.041635513E-1,-1.034186840E0,3.492993383E0
3.324057083E0,3.454701662E0,-2.389058173E-1,-1.126060009E0,3.641435254E0
3.334060083E0,3.487277985E0,-2.266716063E-1,-1.217987657E0,3.700808248E0
3.344063083E0,3.409594536E0,-1.425135881E-1,-1.293068051E0,3.649338297E0
3.354066083E0,3.207674980E0,2.500621229E-2,-1.347235441E0,3.479202124E0
3.364069083E0,2.909877300E0,2.427675724E-1,-1.364646673E0,3.223132411E0
3.374071083E0,2.575252056E0,4.265693128E-1,-1.316683888E0,2.923617792E0
3.384074083E0,2.251882792E0,5.258157849E-1,-1.231216073E0,2.619799871E0
3.394077083E0,1.970703483E0,5.848418474E-1,-1.127002239E0,2.344322130E0
3.404080083E0,1.750013947E0,6.357409954E-1,-1.033971667E0,2.129744782E0
3.414083083E0,1.577208877E0,7.165446281E-1,-9.409039021E-1,1.971376219E0
3.424086083E0,1.440538883E0,8.008997440E-1,-8.561556935E-1,1.857308603E0
3.434088083E0,1.345258951E0,8.365657926E-1,-7.647469044E-1,1.759091185E0
3.444091083E0,1.277592540E0,7.832831144E-1,-6.767451167E-1,1.644311129E0
3.454094083E0,1.204273939E0,6.471042633E-1,-6.205252409E-1,1.501356461E0
3.464097083E0,1.114792466E0,5.033284426E-1,-5.508092642E-1,1.341451680E0
3.474100083E0,9.867643714E-1,3.821191192E-1,-4.508327246E-1,1.150203935E0
3.484103083E0,8.044899106E-1,2.866123021E-1,-3.823988140E-1,9.357240410E-1
3.494105083E0,5.562958717E-1,2.290734500E-1,-3.269346952E-1,6.847087245E-1
3.504108083E0,2.566990554E-1,2.345512956E-1,-2.583524585E-1,4.331913066E-1
3.514111083E0,-8.392081410E-2,2.985962033E-1,-1.872458756E-1,3.623029307E-1
3.524114083E0,-4.374301434E-1,4.749544561E-1,-1.437018663E-1,6.614961013E-1
3.534117083E0,-8.258403540E-1,6.177761555E-1,-1.198915988E-1,1.038284000E0
3.544120083E0,-1.250894308E0,6.194112897E-1,-7.307242602E-2,1.397764821E0
3.554122083E0,-1.678525567E0,5.073977709E-1,-1.887826063E-2,1.753641060E0
3.564125083E0,-2.064126492E0,3.964984119E-1,2.760268934E-2,2.102044498E0
3.574128083E0,-2.389306545E0,3.589445353E-1,5.384060740E-2,2.416717972E0
3.584131083E0,-2.696198225E0,3.257586360E-1,8.747261018E-2,2.717214569E0
3.594134083E0,-3.019906282E0,2.361644506E-1,1.418223083E-1,3.032444751E0
3.604137083E0,-3.377994776E0,3.067654371E-2,1.941044182E-1,3.383705998E0
3.614139083E0,-3.769601107E0,-2.366435975E-1,2.439811528E-1,3.784893591E0
3.624142083E0,-4.149528503E0,-4.741493762E-1,3.016974330E-1,4.187412778E0
3.634145083E0,-4.463350296E0,-5.888789296E-1,3.565968275E-1,4.516130596E0
3.644148083E0,-4.688423157E0,-5.147128105E-1,3.936485946E-1,4.732990618E0
3.654151083E0,-4.846799850E0,-2.828021646E-1,4.330486059E-1,4.874318101E0
3.664154083E0,-4.931334019E0,-1.194356233E-1,4.387259185E-1,4.952252064E0
3.674156083E0,-4.942713261E0,-1.275213808E-1,4.699549079E-1,4.966642095E0
3.684158958E0,-4.874714851E0,-2.553248703E-1,5.442469716E-1,4.911643354E0
3.694161958E0,-4.684992313E0,-3.001588285E-1,5.494049191E-1,4.726636655E0
3.704164958E0,-4.328609467E0,-4.482322559E-2,5.647076964E-1,4.365519879E0
3.714167958E0,-3.778659344E0,2.823156118E-1,5.571012497E-1,3.829925632E0
3.724170958E0,-3.100852489E0,4.367238283E-1,4.736726880E-1,3.167077467E0
3.734172958E0,-2.374769449E0,2.118292153E-1,4.046556056E-1,2.418294381E0
3.744175958E0,-1.676036954E0,-3.547663093E-1,3.636048436E-1,1.751333060E0
3.754178958E0,-1.060447335E0,-1.046107769E0,2.666744888E-1,1.513276346E0
3.764181958E0,-3.813494444E-1,-1.670105338E0,3.676229417E-1,1.752091854E0
3.774184958E0,3.674481809E-1,-1.975633979E0,5.376565456E-1,2.080197670E0
3.784187958E0,1.196690798E0,-1.885905981E0,6.303835511E-1,2.320795910E0
3.794189958E0,2.079266310E0,-1.314932942E0,5.888131857E-1,2.529643848E0
3.804192958E0,2.822256327E0,-5.230795741E-1,4.083049297E-1,2.899216434E0
3.814195958E0,3.387118340E0,2.554587834E-2,2.112195045E-1,3.393793883E0
3.824198958E0,3.805321455E0,1.982737184E-1,1.166706234E-1,3.812269125E0
3.834201958E0,4.074030399E0,1.069027558E-1,1.499280781E-1,4.078189589E0
3.844204958E0,4.214254379E0,-8.229246736E-2,2.817167342E-1,4.224461663E0
3.854206958E0,4.240744591E0,-2.681585550E-1,4.298857749E-1,4.270904526E0
3.864209958E0,4.151372910E0,-4.107828140E-1,5.186201334E-1,4.203760982E0
3.874212958E0,3.976153374E0,-4.587401152E-1,5.186241865E-1,4.035989246E0
3.884215958E0,3.768650770E0,-3.485116065E-1,4.722106159E-1,3.814075489E0
3.894218958E0,3.561021805E0,-7.641293854E-2,4.068674445E-1,3.585004372E0
3.904221958E0,3.397173166E0,1.393198967E-1,3.001596630E-1,3.413252317E0
3.914223958E0,3.236544609E0,3.547907472E-1,1.757031977E-1,3.260670038E0
3.924226958E0,3.091544867E0,6.007450819E-1,8.947084099E-2,3.150642688E0
3.934229958E0,2.952465773E0,8.069577813E-1,4.447043315E-2,3.061080303E0
3.944232958E0,2.817302227E0,9.432386756E-1,2.377367578E-2,2.971103537E0
3.954235958E0,2.663941383E0,1.037676573E0,2.811928838E-2,2.859046530E0
3.964238958E0,2.492572546E0,1.071797013E0,4.222391918E-2,2.713567687E0
3.974240958E0,2.298133373E0,1.094085574E0,5.346269161E-2,2.545839450E0
3.984243958E0,2.092132568E0,1.100327253E0,7.173970342E-2,2.364928188E0
3.994246958E0,1.875935912E0,1.054784656E0,8.729622513E-2,2.153909665E0
4.004249958E0,1.650601268E0,9.957628846E-1,1.059977412E-1,1.930612283E0
4.014252958E0,1.442800164E0,9.134994745E-1,1.315855533E-1,1.712737096E0
4.024255958E0,1.265298247E0,8.345383406E-1,1.445886940E-1,1.522609532E0
4.034257958E0,1.099636912E0,7.834330201E-1,1.367204785E-1,1.357078157E0
4.044260958E0,9.239428639E-1,7.546703219E-1,1.043742597E-1,1.197535677E0
4.054263958E0,7.103041410E-1,7.426804900E-1,6.034483761E-2,1.029440519E0
4.064266958E0,4.386683702E-1,7.579470277E-1,9.242502972E-3,8.757848250E-1
4.074269958E0,9.062843770E-2,7.573922873E-1,-3.200664744E-2,7.634664472E-1
4.084272958E0,-3.255205750E-1,6.883713603E-1,-6.931806356E-2,7.646069372E-1
4.094274958E0,-8.005034328E-1,5.043162107E-1,-1.034139991E-1,9.517536664E-1
4.104277958E0,-1.336590767E0,1.850106418E-1,-1.354968399E-1,1.356120647E0
4.114280958E0,-1.928658724E0,-2.118161470E-1,-1.709592193E-1,1.947772473E0
4.124283958E0,-2.524433136E0,-5.165147781E-1,-2.323269695E-1,2.587184956E0
4.134286958E0,-3.118712902E0,-7.049753666E-1,-2.875287235E-1,3.210301107E0
4.144289958E0,-3.725284338E0,-8.175466657E-1,-3.053460419E-1,3.826141941E0
4.154291958E0,-4.326974392E0,-8.337162137E-1,-2.938278913E-1,4.416347466E0
4.164294958E0,-4.903730392E0,-6.500568986E-1,-2.674175799E-1,4.953852833E0
4.174297958E0,-5.410467148E0,-4.154201150E-1,-2.432863265E-1,5.431842861E0
4.184300958E0,-5.722295761E0,-2.280462235E-1,-1.949163973E-1,5.730154122E0
4.194303958E0,-5.807453156E0,-1.786435246E-1,-9.401880950E-2,5.810960781E0
4.204306958E0,-5.631824493E0,-2.924571633E-1,-3.204545379E-2,5.639503988E0
4.214308958E0,-5.266335011E0,-1.097230762E-1,1.176661253E-1,5.268791979E0
4.224311958E0,-4.818965435E0,1.174650714E-1,1.456594020E-1,4.822597077E0
4.234314958E0,-4.276467800E0,4.379746914E-1,7.193108648E-2,4.299438656E0
4.244317958E0,-3.639493465E0,5.553913116E-1,-3.167439997E-2,3.681762548E0
4.254320958E0,-2.756632805E0,4.217092693E-1,-1.269742846E-1,2.791591947E0
4.264323958E0,-1.784471631E0,1.123844385E-1,-1.853252053E-1,1.797585796E0
4.274325958E0,-9.424389601E-1,-2.686169446E-1,-2.090307176E-1,1.002018012E0
4.284328958E0,-3.356176913E-1,-6.024321914E-1,-2.142976373E-1,7.221407462E-1
4.294331958E0,1.464287788E-1,-8.950537443E-1,-1.756644100E-1,9.238076517E-1
4.304334958E0,6.129139066E-1,-1.045949817E0,-1.305238307E-1,1.219307568E0
4.314337958E0,1.204750538E0,-1.010701418E0,-1.203851849E-1,1.577160045E0
4.324340958E0,1.974581718E0,-8.166560531E-1,-1.824306995E-1,2.144570128E0
4.334342958E0,2.836310387E0,-6.052283049E-1,-2.992061377E-1,2.915558647E0
4.344345958E0,3.713200569E0,-4.945497513E-1,-4.111539721E-1,3.768485838E0
4.354348958E0,4.462485790E0,-5.246451497E-1,-4.512773454E-1,4.515825861E0
4.364351958E0,4.999280453E0,-7.657030225E-1,-4.270367026E-1,5.075575486E0
4.374354958E0,5.360173225E0,-1.041784644E0,-4.894532561E-1,5.482365980E0
4.384356958E0,5.547137737E0,-1.094649792E0,-5.555294752E-1,5.681338596E0
4.394359958E0,5.530373573E0,-1.100529075E0,-6.743371487E-1,5.678989936E0
4.404362958E0,5.271243572E0,-9.555892944E-1,-7.187277675E-1,5.405157657E0
4.414365958E0,4.779033661E0,-8.748210073E-1,-7.841220498E-1,4.921313028E0
4.424368958E0,4.215573788E0,-7.700034976E-1,-6.923508048E-1,4.340889008E0
4.434371958E0,3.572709322E0,-5.896664262E-1,-7.091957331E-1,3.689839696E0
4.444373958E0,2.919402599E0,-3.797640502E-1,-8.270688057E-1,3.057969110E0
4.454376958E0,2.300582409E0,-1.884699613E-1,-9.527375698E-1,2.497180254E0
4.464379958E0,1.798947573E0,-2.944462933E-2,-9.654533267E-1,2.041856871E0
4.474382958E0,1.444083571E0,1.266881526E-1,-8.764864802E-1,1.694005844E0
4.484385958E0,1.137495160E0,3.444146216E-1,-7.987096310E-1,1.431940552E0
4.494388958E0,8.650701642E-1,5.272877216E-1,-7.675722837E-1,1.271041282E0
4.504390958E0,6.376127601E-1,6.505808830E-1,-7.354042530E-1,1.170736919E0
4.514393958E0,4.286648631E-1,7.080737948E-1,-6.778578758E-1,1.069866049E0
4.524396958E0,2.263911217E-1,7.003969550E-1,-5.937525630E-1,9.457012957E-1
4.534399958E0,-1.627041027E-2,6.244865656E-1,-4.703216851E-1,7.819531216E-1
4.544402958E0,-3.175570369E-1,5.224195719E-1,-3.581088781E-1,7.085242758E-1
4.554405958E0,-6.195177436E-1,4.894090891E-1,-2.318491936E-1,8.228472153E-1
4.564407958E0,-8.934472799E-1,5.451394320E-1,-1.401664168E-1,1.055969539E0
4.574410958E0,-1.148898721E0,6.243740320E-1,-6.821668893E-2,1.309375698E0
4.584413958E0,-1.394102335E0,6.834842563E-1,-9.745927528E-3,1.552664494E0
4.594416958E0,-1.619806409E0,7.482953072E-1,2.400891855E-2,1.784459329E0
4.604419958E0,-1.829460502E0,8.098657131E-1,3.126736358E-2,2.000946238E0
4.614422958E0,-2.035985231E0,8.166380525E-1,4.882373661E-2,2.194200841E0
4.624424958E0,-2.289047480E0,7.324312925E-1,7.395891845E-2,2.404509073E0
4.634427958E0,-2.645992041E0,5.679182410E-1,1.236449704E-1,2.709076058E0
4.644430958E0,-3.062660217E0,3.872209191E-1,1.625825167E-1,3.091320223E0
4.654433958E0,-3.502437115E0,1.856691688E-1,1.842199117E-1,3.512189596E0
4.664436958E0,-3.983553886E0,-5.840448290E-2,2.194508761E-1,3.990021471E0
4.674438958E0,-4.480806828E0,-3.194417357E-1,3.063280582E-1,4.502611434E0
4.684441958E0,-4.948401451E0,-5.522403717E-1,4.198215902E-1,4.996788620E0
4.694444958E0,-5.285286427E0,-6.073871255E-1,4.670830369E-1,5.340537266E0
4.704447958E0,-5.547892570E0,-5.536820889E-1,4.603079557E-1,5.594422155E0
4.714450958E0,-5.676831245E0,-5.023311973E-1,4.692556262E-1,5.718299613E0
4.724453958E0,-5.650709152E0,-4.765850604E-1,5.095652342E-1,5.693619584E0
4.734455958E0,-5.402463913E0,-3.641270101E-1,4.765155017E-1,5.435648244E0
4.744458958E0,-4.926786900E0,-3.886451423E-1,4.127498269E-1,4.959297997E0
4.754461958E0,-4.220385075E0,-4.834714830E-1,2.809143960E-1,4.257265290E0
4.764464958E0,-3.300075769E0,-5.246903300E-1,2.344382405E-1,3.349740485E0
4.774467958E0,-2.164900064E0,-7.202805281E-1,1.665232033E-1,2.287646456E0
4.784470958E0,-1.159592032E0,-9.548826814E-1,8.812107146E-2,1.504732514E0
4.794472958E0,-5.235719085E-1,-1.257226706E0,1.290570945E-3,1.361891405E0
4.804475958E0,-5.662604421E-2,-1.642186880E0,2.671219707E-1,1.664733734E0
4.814478958E0,3.805850446E-1,-1.856429935E0,5.809270144E-1,1.982083064E0
4.824481958E0,9.089977741E-1,-1.765110135E0,8.278015256E-1,2.151080219E0
4.834484958E0,1.550670385E0,-1.478667736E0,9.754209518E-1,2.354247852E0
4.844487958E0,2.241742134E0,-9.873586893E-1,9.161757231E-1,2.615274925E0
4.854489958E0,2.984164953E0,-3.522139192E-1,7.077095509E-1,3.087093766E0
4.864492958E0,3.788140774E0,2.617027760E-1,4.789152741E-1,3.827252109E0
4.874495958E0,4.570035458E0,7.645260096E-1,3.506774902E-1,4.646794466E0
4.884498958E0,5.204560757E0,1.058906317E0,3.449676931E-1,5.322380855E0
4.894501958E0,5.709720135E0,1.208647847E0,4.958805740E-1,5.857271650E0
4.904504958E0,6.016790867E0,1.222189784E0,6.533905864E-1,6.174337168E0
4.914506958E0,6.089828968E0,1.209259391E0,8.364247680E-1,6.264816959E0
4.924509958E0,5.910066605E0,1.161872149E0,9.568315744E-1,6.098717965E0
4.934512958E0,5.544271469E0,1.104359865E0,1.058997631E0,5.751524391E0
4.944515958E0,5.038004398E0,9.989599586E-1,1.084301591E0,5.249297025E0
4.954518958E0,4.493065357E0,8.191824555E-1,1.058417320E0,4.688170584E0
4.964520958E0,3.956571579E0,6.671292782E-1,1.000426888E0,4.135259858E0
4.974523958E0,3.453830481E0,5.547448993E-1,8.979182839E-1,3.611501646E0
4.984526958E0,2.983520269E0,4.186590016E-1,7.749401927E-1,3.110819966E0
4.994529958E0,2.535881042E0,2.002996653E-1,5.471333861E-1,2.601954565E0
5.004532958E0,2.107914686E0,1.088340115E-2,2.538048327E-1,2.123167366E0
5.014535958E0,1.726845980E0,-8.382403851E-2,7.235988043E-3,1.728894406E0
5.024537958E0,1.493218064E0,-6.104309484E-2,-5.795552954E-2,1.495588610E0
5.034540958E0,1.349568725E0,2.469961345E-2,-2.962794341E-2,1.350119857E0
5.044543958E0,1.185622215E0,1.203832626E-1,2.919880906E-3,1.191721735E0
5.054546958E0,9.450442195E-1,1.882427037E-1,-4.274755716E-2,9.645575389E-1
5.064549958E0,6.599291563E-1,2.602007985E-1,-7.984565943E-2,7.138531195E-1
5.074552958E0,3.456164300E-1,3.176955581E-1,-7.954899222E-2,4.761399232E-1
5.084554958E0,-2.902216464E-2,3.805965185E-1,-6.726676226E-2,3.875832985E-1
5.094557958E0,-4.768774509E-1,4.821850955E-1,-4.961921275E-2,6.799828203E-1
5.104560958E0,-9.871521592E-1,5.863316655E-1,-2.553411573E-2,1.148436415E0
5.114563958E0,-1.527959347E0,6.674521565E-1,-6.013510749E-3,1.667389669E0
5.124566958E0,-2.058466911E0,7.216552496E-1,3.153786063E-2,2.181528584E0
5.134568958E0,-2.546325445E0,8.360374570E-1,4.751789197E-2,2.680483138E0
5.144571958E0,-2.910076857E0,1.075937986E0,1.517642289E-3,3.102610540E0
5.154574958E0,-3.186557770E0,1.358060122E0,-1.633519232E-1,3.467731472E0
5.164577958E0,-3.469805241E0,1.442617893E0,-3.359047771E-1,3.772734660E0
5.174580958E0,-3.808925152E0,1.328833461E0,-4.358291626E-1,4.057543128E0
5.184583958E0,-4.242389202E0,1.067582726E0,-5.992183685E-1,4.415502426E0
5.194585958E0,-4.710638046E0,7.889456749E-1,-7.419334054E-1,4.833529896E0
5.204588958E0,-5.134769917E0,5.307905078E-1,-8.403273821E-1,5.230081335E0
5.214591958E0,-5.497403622E0,3.311650455E-1,-9.420608878E-1,5.587360341E0
5.224594958E0,-5.749098301E0,2.566881478E-1,-9.585255980E-1,5.834105878E0
5.234597958E0,-5.828496933E0,2.148861624E-2,-9.277953506E-1,5.901918542E0
5.244600958E0,-5.705049038E0,-1.955217272E-1,-9.519174695E-1,5.787223872E0
5.254602958E0,-5.463134766E0,-2.414822727E-1,-1.077740550E0,5.573659467E0
5.264605958E0,-5.159077644E0,-2.781036496E-1,-1.231634736E0,5.311341441E0
5.274608958E0,-4.724966049E0,-2.697941661E-1,-1.195975780E0,4.881439452E0
5.284611958E0,-4.001576424E0,-8.809734881E-2,-1.011197209E0,4.128304109E0
5.294614958E0,-2.973009348E0,2.685486376E-1,-9.090024829E-1,3.120446838E0
5.304617958E0,-1.738056064E0,5.532855988E-1,-8.403847814E-1,2.008285442E0
5.314619958E0,-6.304359436E-1,1.957024783E-1,-8.920087218E-1,1.109697481E0
5.324622958E0,3.298085928E-1,-5.189853311E-1,-9.806264639E-1,1.157474727E0
5.334625958E0,1.250273585E0,-1.318272710E0,-1.010166407E0,2.078812917E0
5.344628958E0,2.194285393E0,-2.012608528E0,-9.946869612E-1,3.139248895E0
5.354631958E0,3.175731659E0,-2.397279978E0,-9.688063264E-1,4.095217767E0
5.364633958E0,4.220516205E0,-2.335195303E0,-9.975855350E-1,4.925552866E0
5.374636958E0,5.285990238E0,-1.901153564E0,-1.171560764E0,5.738347523E0
5.384639958E0,6.229039192E0,-1.239509583E0,-1.373551369E0,6.497996355E0
5.394642958E0,6.962430954E0,-5.782756805E-1,-1.542945147E0,7.154755571E0
5.404645958E0,7.473187923E0,-1.896366291E-2,-1.632192373E0,7.649375746E0
5.414648958E0,7.765874386E0,3.395736516E-1,-1.615599513E0,7.939412889E0
5.424650958E0,7.818665981E0,4.214051366E-1,-1.443513989E0,7.961962864E0
5.434653958E0,7.601178646E0,2.929874063E-1,-1.107816815E0,7.687068136E0
5.444656958E0,7.080621243E0,-2.599165142E-1,-8.642315865E-1,7.137902354E0
5.454659958E0,6.211533546E0,-8.675787449E-1,-6.250040531E-1,6.302893934E0
5.464662958E0,5.210410118E0,-1.429809690E0,-3.655152321E-1,5.415379094E0
5.474665958E0,4.208024979E0,-1.746898770E0,-3.955671191E-1,4.573357944E0
5.484667958E0,3.223445415E0,-1.703371882E0,-5.147052407E-1,3.681982836E0
5.494670958E0,2.320120811E0,-1.415775895E0,-6.387150884E-1,2.792013419E0
5.504673958E0,1.609493256E0,-1.033865809E0,-6.933354139E-1,2.034713997E0
5.514676958E0,1.020823479E0,-5.007770061E-1,-7.500230074E-1,1.362128003E0
5.524679958E0,5.453991890E-1,2.022440545E-2,-7.892457247E-1,9.595718399E-1
5.534681958E0,1.099496707E-1,5.237724185E-1,-8.181104064E-1,9.776150129E-1
5.544684958E0,-2.865646482E-1,8.713426590E-1,-8.005239964E-1,1.217454720E0
5.554687958E0,-6.528981924E-1,1.064076662E0,-7.448610663E-1,1.453737666E0
5.564690958E0,-9.695288539E-1,1.148593664E0,-6.850925088E-1,1.651849070E0
5.574693958E0,-1.237045169E0,1.162301898E0,-6.178969145E-1,1.806383970E0
5.584696958E0,-1.456916809E0,1.144218445E0,-5.271355510E-1,1.926061870E0
5.594698958E0,-1.650813937E0,1.128103614E0,-4.465926886E-1,2.048718977E0
5.604701958E0,-1.823751330E0,1.123658538E0,-3.986813426E-1,2.178904366E0
5.614704958E0,-1.983515620E0,1.119729042E0,-3.753927052E-1,2.308472878E0
5.624707958E0,-2.137266159E0,1.069297314E0,-3.425751030E-1,2.414262016E0
5.634710958E0,-2.309968472E0,1.000776172E0,-2.876148224E-1,2.533817194E0
5.644712958E0,-2.498296261E0,9.287728071E-1,-2.470628917E-1,2.676778513E0
5.654715958E0,-2.695980787E0,8.492053151E-1,-2.155623883E-1,2.834771457E0
5.664718958E0,-2.903323650E0,7.219523191E-1,-1.742035002E-1,2.996806672E0
5.674721958E0,-3.145079374E0,5.704191923E-1,-1.156218648E-1,3.198479442E0
5.684724958E0,-3.423389673E0,4.171899259E-1,-4.463796690E-2,3.449005195E0
5.694728458E0,-3.701678753E0,2.664776444E-1,2.269082516E-2,3.711327363E0
5.704730458E0,-3.957707405E0,1.417008489E-1,6.308805197E-2,3.960745780E0
5.714733458E0,-4.200787544E0,5.325351655E-2,9.160003066E-2,4.202123570E0
5.724736458E0,-4.357671738E0,-6.449654698E-2,1.389347911E-1,4.360363019E0
5.734739458E0,-4.446819782E0,-2.856632173E-1,1.779192090E-1,4.459536399E0
5.744742458E0,-4.438514709E0,-5.423508883E-1,1.834953427E-1,4.475290812E0
5.754745458E0,-4.316545010E0,-7.966961861E-1,1.504322737E-1,4.392028632E0
5.764747458E0,-4.081582069E0,-1.013814926E0,9.357351810E-2,4.206648178E0
5.774750458E0,-3.724256992E0,-1.177173495E0,3.960447758E-2,3.906071696E0
5.784753458E0,-3.284952879E0,-1.292053223E0,1.183303352E-2,3.529937247E0
5.794756458E0,-2.796852350E0,-1.265619874E0,2.731133997E-2,3.070003688E0
5.804759458E0,-2.273340940E0,-1.175656438E0,1.136656702E-1,2.561867869E0
5.814761458E0,-1.708671570E0,-1.044365168E0,2.770455182E-1,2.021635812E0
5.824764458E0,-1.175254822E0,-8.079155684E-1,4.439146817E-1,1.493657158E0
5.834767458E0,-6.762989759E-1,-5.956128240E-1,4.994946718E-1,1.030354244E0
5.844770458E0,-1.208535507E-1,-7.003976107E-1,4.312927127E-1,8.313698321E-1
5.854773458E0,5.455412269E-1,-1.105401754E0,3.060366213E-1,1.270112862E0
5.864776458E0,1.342755318E0,-1.530083537E0,1.952866614E-1,2.045063411E0
5.874778458E0,2.256297350E0,-1.757308960E0,9.284924716E-2,2.861404112E0
5.884781458E0,3.238802433E0,-1.618542552E0,-6.081059109E-3,3.620712385E0
5.894784458E0,4.152517319E0,-1.084000826E0,-1.656323671E-1,4.294868095E0
5.904787458E0,4.845002174E0,-3.431432843E-1,-3.549362421E-1,4.870089642E0
5.914790458E0,5.261246204E0,4.319241047E-1,-5.235458016E-1,5.304844037E0
5.924792458E0,5.446465969E0,1.079662442E0,-6.154254079E-1,5.586448870E0
5.934795458E0,5.486322880E0,1.520311475E0,-6.040548682E-1,5.725029957E0
5.944798458E0,5.445893764E0,1.800608873E0,-4.531425536E-1,5.753719613E0
5.954801458E0,5.283676624E0,1.672778368E0,-3.049101233E-1,5.550531175E0
5.964804458E0,4.942471981E0,1.357708573E0,-1.164318249E-1,5.126885821E0
5.974807458E0,4.471140385E0,9.768040776E-1,1.103266850E-1,4.577926880E0
5.984809458E0,3.969509363E0,5.603114963E-1,3.649784029E-1,4.025439453E0
5.994812458E0,3.391657114E0,3.635218441E-1,4.850353897E-1,3.445394816E0
6.004815458E0,2.832661390E0,2.998238504E-1,4.811634123E-1,2.888837677E0
6.014818458E0,2.285776138E0,3.186867833E-1,3.454512060E-1,2.333596014E0
6.024821458E0,1.780577660E0,4.437288344E-1,2.457869351E-1,1.851421966E0
6.034823458E0,1.354165196E0,6.320398450E-1,2.007300705E-1,1.507823035E0
6.044826458E0,1.043557525E0,8.352441192E-1,2.037077546E-1,1.352087976E0
6.054829458E0,8.069633245E-1,9.985195994E-1,2.060806453E-1,1.300269368E0
6.064832458E0,5.991355777E-1,1.118824720E0,2.189940363E-1,1.287901620E0
6.074835458E0,4.140843451E-1,1.178426027E0,2.452812940E-1,1.272916596E0
6.084838458E0,2.456066310E-1,1.157185912E0,2.671125531E-1,1.212745220E0
6.094840458E0,5.493007973E-2,1.107537866E0,2.539626658E-1,1.137609104E0
6.104843458E0,-1.703733504E-1,1.032854795E0,2.100029290E-1,1.067669114E0
6.114846458E0,-4.308710396E-1,9.449552894E-1,1.666558236E-1,1.051838636E0
6.124849458E0,-7.297503948E-1,8.683539629E-1,1.349018812E-1,1.142266502E0
6.134852458E0,-1.014375567E0,7.984042168E-1,1.141872704E-1,1.295934342E0
6.144855458E0,-1.278294802E0,7.180635333E-1,1.115954816E-1,1.470410279E0
6.154857458E0,-1.552054048E0,6.024992466E-1,1.088278517E-1,1.668448564E0
6.164860458E0,-1.795842171E0,4.739410281E-1,1.190866157E-1,1.861142343E0
6.174863458E0,-2.010833025E0,3.637301028E-1,1.520498842E-1,2.049114006E0
6.184866458E0,-2.225373507E0,2.781124115E-1,2.015122473E-1,2.251719552E0
6.194869458E0,-2.460597754E0,2.009344697E-1,2.679249942E-1,2.483284069E0
6.204871458E0,-2.810198069E0,1.258349270E-1,2.642754018E-1,2.825400698E0
6.214874458E0,-3.225780010E0,5.588085577E-2,2.158111036E-1,3.233473949E0
6.224877458E0,-3.667007923E0,1.316947164E-3,1.333551109E-1,3.669432167E0
6.234880458E0,-4.052341461E0,-7.003583014E-2,4.269542173E-2,4.053171503E0
6.244883458E0,-4.295032501E0,-1.775066406E-1,-4.036857188E-2,4.298888509E0
6.254885458E0,-4.405554295E0,-2.363465279E-1,-6.409689784E-2,4.412355010E0
6.264888458E0,-4.439373493E0,-2.421791255E-1,-5.909494683E-2,4.446367051E0
6.274891458E0,-4.408582211E0,-1.774927825E-1,-6.797464192E-2,4.412677345E0
6.284894458E0,-4.210611343E0,4.920702428E-3,-2.627086937E-1,4.218801720E0
6.294897458E0,-4.009653091E0,3.778405115E-2,-6.394007802E-1,4.060489983E0
6.304900458E0,-3.974320173E0,-1.740443110E-1,-9.279587865E-1,4.084925920E0
6.314902458E0,-4.055243969E0,-6.655921340E-1,-9.984627366E-1,4.229059514E0
6.324905458E0,-3.994608164E0,-1.241602302E0,-9.815710783E-1,4.296737418E0
6.334908458E0,-3.605860472E0,-1.749361873E0,-9.760425091E-1,4.124943113E0
6.344911458E0,-2.969513893E0,-2.039269447E0,-1.000439525E0,3.738651078E0
6.354914458E0,-2.224379539E0,-2.234968901E0,-1.036015391E0,3.319077916E0
6.364917458E0,-1.107436061E0,-2.283704996E0,-9.220756292E-1,2.700360458E0
6.374919458E0,-2.813763618E-1,-2.165879488E0,-8.014285564E-1,2.326476809E0
6.384922458E0,2.376457751E-1,-1.823183298E0,-8.029468656E-1,2.006289242E0
6.394925458E0,9.688675404E-1,-1.616096377E0,-8.464633226E-1,2.065665018E0
6.404928458E0,1.776949167E0,-1.313049436E0,-8.153751493E-1,2.355097407E0
6.414931458E0,2.552320719E0,-9.773709774E-1,-6.752951741E-1,2.815247529E0
6.424933458E0,3.262622833E0,-7.329236865E-1,-5.673537850E-1,3.391721569E0
6.434936458E0,3.866157532E0,-4.937687218E-1,-5.738996863E-1,3.939586585E0
6.444939458E0,4.357298374E0,-3.432191610E-1,-6.339741945E-1,4.416533912E0
6.454942458E0,4.753706455E0,-3.316426575E-1,-6.937112212E-1,4.815490336E0
6.464945458E0,5.070054531E0,-4.348036647E-1,-6.855803728E-1,5.134639970E0
6.474948458E0,5.295929432E0,-6.106340289E-1,-6.331499815E-1,5.368484084E0
6.484950458E0,5.423015594E0,-8.254646063E-1,-5.504058003E-1,5.513024261E0
6.494953458E0,5.408504486E0,-9.069545865E-1,-4.935454428E-1,5.506185113E0
6.504956458E0,5.254843235E0,-9.032378793E-1,-4.495356679E-1,5.350822218E0
6.514959458E0,4.996474266E0,-7.745335698E-1,-3.987697661E-1,5.071851207E0
6.524962458E0,4.585585594E0,-5.572531819E-1,-4.323602021E-1,4.639510933E0
6.534964458E0,4.085654736E0,-2.688004375E-1,-4.738921225E-1,4.121820233E0
6.544967458E0,3.561383247E0,3.591979295E-2,-4.874081910E-1,3.594761134E0
6.554970458E0,3.010135174E0,3.178081810E-1,-4.949790537E-1,3.067070274E0
6.564973458E0,2.424986601E0,5.706787705E-1,-5.280176997E-1,2.546573573E0
6.574976458E0,1.835139036E0,8.092602491E-1,-5.870028734E-1,2.089787024E0
6.584978458E0,1.264171362E0,1.037804484E0,-6.261278987E-1,1.751343349E0
6.594981458E0,7.246070504E-1,1.260777354E0,-6.480554938E-1,1.592039835E0
6.604984458E0,2.448660433E-1,1.426191330E0,-6.441976428E-1,1.583973387E0
6.614987458E0,-1.241228208E-1,1.526515126E0,-5.849336982E-1,1.639451840E0
6.624990458E0,-3.869493902E-1,1.607055306E0,-5.038590431E-1,1.728071331E0
6.634993458E0,-5.911546350E-1,1.668697953E0,-4.323871136E-1,1.822354323E0
6.644995458E0,-7.474672794E-1,1.686372995E0,-3.726995587E-1,1.881878363E0
6.654998458E0,-8.694772124E-1,1.627604127E0,-3.036293089E-1,1.870100686E0
6.665001458E0,-9.867684245E-1,1.520096540E0,-2.225725502E-1,1.825909077E0
6.675004458E0,-1.121146560E0,1.406756639E0,-1.484480798E-1,1.804984954E0
6.685007458E0,-1.288874507E0,1.322569132E0,-6.858494133E-2,1.847996347E0
6.695009583E0,-1.480226874E0,1.263269663E0,5.277030170E-3,1.946008656E0
6.705012583E0,-1.697497606E0,1.178280711E0,5.993574858E-2,2.067229027E0
6.715015583E0,-1.933538914E0,1.077797890E0,8.475480974E-2,2.215266214E0
6.725018583E0,-2.180076599E0,9.676420689E-1,9.722799063E-2,2.387156977E0
6.735021583E0,-2.395120859E0,8.023002744E-1,1.087937504E-1,2.528265362E0
6.745024583E0,-2.586870909E0,5.187271833E-1,1.182269305E-1,2.641014312E0
6.755026583E0,-2.802520514E0,1.055379212E-1,1.074586138E-1,2.806564953E0
6.765029583E0,-3.081621408E0,-3.422891200E-1,8.797945827E-2,3.101820874E0
6.775032583E0,-3.401860952E0,-7.530444264E-1,1.086151302E-1,3.485904631E0
6.785035583E0,-3.724757433E0,-1.125729799E0,1.653745621E-1,3.894667413E0
6.795038583E0,-4.088565350E0,-1.407191515E0,2.833119333E-1,4.333222846E0
6.805040583E0,-4.484743595E0,-1.700400710E0,4.449985623E-1,4.816877766E0
6.815043583E0,-4.850937366E0,-1.946738124E0,5.797355175E-1,5.259037548E0
6.825046583E0,-5.075171947E0,-2.004614592E0,6.318684816E-1,5.493187393E0
6.835049583E0,-5.024757862E0,-1.728166938E0,5.391861796E-1,5.340924477E0
6.845052583E0,-4.612160683E0,-1.113775492E0,3.061577678E-1,4.754603515E0
6.855054583E0,-4.246718884E0,-8.581039906E-1,2.635942400E-1,4.340558220E0
6.865057583E0,-4.101703644E0,-9.654440284E-1,4.701194465E-1,4.239937175E0
6.875060583E0,-3.947615147E0,-1.026831388E0,7.251318693E-1,4.142929431E0
6.885063583E0,-3.594004154E0,-1.000108242E0,8.612958193E-1,3.828695972E0
6.895066583E0,-3.010015488E0,-1.000129342E0,8.689442277E-1,3.288695183E0
6.905069583E0,-2.234754801E0,-9.724463224E-1,8.517303467E-1,2.581709793E0
6.915071583E0,-1.263782859E0,-9.118719101E-1,9.407020211E-1,1.820323539E0
6.925074583E0,-2.388713956E-1,-8.300963640E-1,9.457985163E-1,1.280880303E0
6.935077583E0,8.405045867E-1,-6.296362281E-1,8.616667986E-1,1.358440066E0
6.945080583E0,1.998422265E0,-4.024518132E-1,6.507771611E-1,2.139899513E0
6.955083583E0,3.078734398E0,-2.153507173E-1,3.348369002E-1,3.104367435E0
6.965085583E0,3.999773502E0,-2.499595284E-2,-7.165867090E-2,4.000493449E0
6.975088583E0,4.790975094E0,3.912729025E-1,-3.249780238E-1,4.817898665E0
6.985091583E0,5.365634918E0,8.890177011E-1,-3.815385103E-1,5.452152069E0
6.995094583E0,5.763329506E0,1.240557075E0,-2.882536352E-1,5.902375709E0
7.005097583E0,6.000524521E0,1.418215156E0,-1.065989062E-1,6.166765123E0
7.015100583E0,6.000648499E0,1.428200245E0,6.577224284E-2,6.168619321E0
7.025102583E0,5.745282650E0,1.323953986E0,2.157356292E-1,5.899802433E0
7.035105583E0,5.286035061E0,1.171654105E0,3.349758387E-1,5.424679605E0
7.045108583E0,4.665881634E0,9.257370234E-1,4.244655073E-1,4.775731507E0
7.055111583E0,3.957788706E0,6.022979021E-1,4.928154349E-1,4.033574253E0
7.065114583E0,3.229641676E0,2.890081704E-1,5.137960911E-1,3.283001295E0
7.075116583E0,2.579598904E0,7.951239496E-2,4.934682846E-1,2.627577529E0
7.085119583E0,2.035330772E0,-8.970832825E-2,4.779601395E-1,2.092621521E0
7.095122583E0,1.623394132E0,-1.835725605E-1,4.777191579E-1,1.702152457E0
7.105125583E0,1.327565908E0,-1.903303415E-1,4.648731351E-1,1.419423796E0
7.115128583E0,1.123887181E0,-1.613311172E-1,4.209476709E-1,1.210928184E0
7.125130583E0,1.000600100E0,-9.199518710E-2,3.604715466E-1,1.067522089E0
7.135133583E0,9.224410057E-1,-9.409477934E-3,2.874810100E-1,9.662459720E-1
7.145136583E0,8.618551493E-1,7.318553329E-2,2.058934867E-1,8.891245967E-1
7.155139583E0,8.082325459E-1,1.753562689E-1,1.231173798E-1,8.361504401E-1
7.165142583E0,7.429696321E-1,2.853871882E-1,5.171536654E-2,7.975739468E-1
7.175145583E0,6.434514523E-1,3.817977607E-1,-3.834217787E-4,7.481974663E-1
7.185147583E0,4.967696071E-1,4.480148852E-1,-2.440593392E-2,6.693975123E-1
7.195150583E0,2.837708294E-1,4.905115068E-1,-2.342803031E-2,5.671651387E-1
7.205153583E0,1.985105500E-2,5.176776052E-1,-1.329709962E-2,5.182286948E-1
7.215156583E0,-2.706797123E-1,5.284132361E-1,1.260551531E-2,5.938408489E-1
7.225159583E0,-5.906917453E-1,5.225816965E-1,5.582702160E-2,7.906484831E-1
7.235161583E0,-9.451092482E-1,4.451845586E-1,1.081168577E-1,1.050290454E0
7.245164583E0,-1.333671331E0,2.977434397E-1,1.624834239E-1,1.376129078E0
7.255167583E0,-1.735038877E0,1.174598932E-1,2.293306440E-1,1.754066496E0
7.265170583E0,-2.147479057E0,-9.044137597E-2,3.080502152E-1,2.171345408E0
7.275173583E0,-2.551637411E0,-3.009108305E-1,3.754890859E-1,2.596611804E0
7.285175583E0,-2.911731005E0,-5.139470100E-1,4.223929644E-1,2.986759915E0
7.295178583E0,-3.221271992E0,-7.309676409E-1,4.531899989E-1,3.334109793E0
7.305181583E0,-3.507696629E0,-8.625184298E-1,4.656714499E-1,3.642076822E0
7.315184583E0,-3.735110044E0,-8.797857761E-1,3.895206749E-1,3.857045036E0
7.325187583E0,-3.866389275E0,-6.948385239E-1,2.789587379E-1,3.938220991E0
7.335190583E0,-4.018313408E0,-7.327616811E-1,3.029704988E-1,4.095799488E0
7.345192583E0,-4.258318424E0,-9.608901739E-1,4.598871469E-1,4.389542336E0
7.355195583E0,-4.538864136E0,-1.146595478E0,6.077875495E-1,4.720738770E0
7.365198583E0,-4.638793468E0,-1.131335258E0,7.365929484E-1,4.831241402E0
7.375201583E0,-4.354969025E0,-9.644747376E-1,8.006195426E-1,4.531772101E0
7.385204583E0,-3.683400869E0,-6.677040458E-1,6.306994557E-1,3.796189202E0
7.395206583E0,-2.613157749E0,-2.237917483E-1,2.959164977E-1,2.639364079E0
7.405209583E0,-1.201964378E0,2.297866642E-1,-4.327861220E-2,1.224497169E0
7.415212583E0,3.528337777E-1,5.228061676E-1,-3.414783478E-1,7.172345680E-1
7.425215583E0,1.742886186E0,5.499688387E-1,-6.088493466E-1,1.926347712E0
7.435218583E0,2.777162790E0,5.187952518E-1,-7.763293982E-1,2.929926452E0
7.445220583E0,3.437223434E0,2.817864716E-1,-7.744958401E-1,3.534650246E0
7.455223583E0,3.781565905E0,4.550256766E-3,-6.918637753E-1,3.844338289E0
7.465226583E0,4.086209297E0,1.063503847E-1,-6.691837907E-1,4.142007215E0
7.475229583E0,4.403626919E0,4.209156632E-1,-7.697488070E-1,4.490168511E0
7.485232583E0,4.643952847E0,6.541656852E-1,-8.542309403E-1,4.766963529E0
7.495235583E0,4.800902367E0,8.202847838E-1,-8.601368666E-1,4.945843314E0
7.505237583E0,4.857059479E0,8.866065145E-1,-7.660692334E-1,4.996394696E0
7.515240583E0,4.846257687E0,8.509913087E-1,-5.771327019E-1,4.954137859E0
7.525243583E0,4.673630238E0,6.282908916E-1,-3.901822269E-1,4.731787317E0
7.535246583E0,4.344005108E0,3.089744747E-1,-2.768853307E-1,4.363772575E0
7.545249583E0,3.868898392E0,1.081875786E-1,-2.521456182E-1,3.878615311E0
7.555251583E0,3.295506001E0,1.012515053E-1,-2.685239613E-1,3.307977749E0
7.565254583E0,2.624086380E0,1.727869362E-1,-2.833567262E-1,2.644990678E0
7.575257583E0,1.850810051E0,2.465287894E-1,-3.172750175E-1,1.893921256E0
7.585260583E0,1.054807425E0,3.394022584E-1,-3.768832088E-1,1.170407429E0
7.595263583E0,3.388279080E-1,4.226612747E-1,-4.426141083E-1,6.995385288E-1
7.605265583E0,-2.280355394E-1,3.818379641E-1,-4.420886636E-1,6.270907626E-1
7.615268583E0,-6.995502710E-1,1.093810201E-1,-3.860667646E-1,8.064628547E-1
7.625271583E0,-1.098207951E0,-2.898577154E-1,-2.738803029E-1,1.168370069E0
7.635274583E0,-1.445371747E0,-7.327795029E-1,-1.568013579E-1,1.628082293E0
7.645277583E0,-1.719599247E0,-1.236217856E0,-5.650005117E-2,2.118595859E0
7.655279583E0,-1.893888116E0,-1.646522641E0,1.381175127E-2,2.509589562E0
7.665282583E0,-1.815723538E0,-1.563303471E0,-1.158681605E-2,2.396018356E0
7.675285583E0,-1.289222479E0,-7.744185925E-1,-2.280528992E-1,1.521126846E0
7.685288583E0,-5.452301502E-1,2.357863486E-1,-5.148642063E-1,7.861019462E-1
7.695291625E0,-8.477108181E-2,7.485558391E-1,-6.685955524E-1,1.007244753E0
7.705294625E0,2.224644274E-2,8.740634322E-1,-7.075451016E-1,1.124767469E0
7.715296625E0,-4.949850217E-2,8.798809052E-1,-7.167444825E-1,1.135941531E0
7.725299625E0,-1.998328716E-1,8.497696519E-1,-6.787251830E-1,1.105761960E0
7.735302625E0,-3.899572492E-1,8.022950888E-1,-5.864662528E-1,1.067561114E0
7.745305625E0,-5.938999653E-1,7.199485302E-1,-4.592603743E-1,1.040174575E0
7.755308625E0,-7.923520207E-1,6.312198043E-1,-3.180801570E-1,1.061807493E0
7.765310625E0,-9.997531772E-1,5.425354838E-1,-1.796610504E-1,1.151576858E0
7.775313625E0,-1.251642585E0,4.669342637E-1,-6.743445992E-2,1.337603892E0
7.785316625E0,-1.547561884E0,4.622274041E-1,4.235861823E-2,1.615672061E0
7.795319625E0,-1.857492089E0,4.705262184E-1,1.237958595E-1,1.920155514E0
7.805322625E0,-2.209216118E0,4.529392421E-1,1.761538833E-1,2.262038904E0
7.815324625E0,-2.642878056E0,3.318275511E-1,1.809627563E-1,2.669768053E0
7.825327625E0,-3.139724731E0,2.250065655E-1,7.903425395E-2,3.148768927E0
7.835330625E0,-3.537275314E0,3.531540334E-1,-7.143044472E-2,3.555578255E0
7.845333625E0,-3.900586605E0,5.284984112E-1,-1.606055796E-1,3.939502581E0
7.855336625E0,-4.310914993E0,5.394302607E-1,-1.442627609E-1,4.346928206E0
7.865339625E0,-4.738829613E0,4.078274965E-1,-1.285461038E-1,4.758082961E0
7.875341625E0,-5.122971058E0,3.100037873E-1,-9.359283000E-2,5.133195343E0
7.885344625E0,-5.495366573E0,8.742714673E-2,-8.305975795E-2,5.496689568E0
7.895347625E0,-5.672163010E0,-2.125052959E-1,-1.041492373E-1,5.677097742E0
7.905350625E0,-5.567296028E0,-6.506016254E-1,-1.360094249E-1,5.606832092E0
7.915353625E0,-5.125373840E0,-1.515061378E0,-1.910371035E-1,5.348024229E0
7.925355625E0,-4.248302937E0,-2.722911596E0,-1.003647149E-1,5.047018771E0
7.935358625E0,-2.852237940E0,-3.712432384E0,1.360162348E-1,4.683579389E0
7.945361625E0,-1.046517849E0,-3.994374752E0,4.095710814E-1,4.149455113E0
7.955364625E0,7.166383266E-1,-3.485061646E0,6.110981107E-1,3.610078402E0
7.965367625E0,2.132953405E0,-2.619045019E0,6.791507006E-1,3.445305896E0
7.975369625E0,2.924385548E0,-1.920837164E0,8.678607941E-1,3.604834060E0
7.985372625E0,3.239940643E0,-6.642123461E-1,1.041912556E0,3.467560408E0
7.995375625E0,3.188843489E0,7.311035395E-1,1.112347007E0,3.455510244E0
8.005378625E0,3.312958956E0,8.497263193E-1,1.152681112E0,3.609211217E0
8.015381625E0,3.548884392E0,5.335260034E-1,1.167233944E0,3.773813125E0
8.025383625E0,3.718095779E0,1.611281931E-1,1.250368237E0,3.926018244E0
8.035386625E0,3.924314737E0,-7.292371988E-2,1.330583930E0,4.144395930E0
8.045389625E0,4.280235767E0,-2.251843512E-1,1.371846199E0,4.500343121E0
8.055392625E0,4.790941238E0,-9.262158722E-2,1.331869602E0,4.973487041E0
8.065395625E0,5.208434582E0,3.030503690E-1,1.275759935E0,5.370958362E0
8.075397625E0,5.686442375E0,1.082451224E0,1.215766311E0,5.914847019E0
8.085400625E0,5.913032055E0,1.815026641E0,1.112198710E0,6.284525102E0
8.095403625E0,5.794613361E0,2.424062490E0,9.526074529E-1,6.353037378E0
8.105406625E0,5.266524315E0,2.836735249E0,8.046779037E-1,6.035797525E0
8.115409625E0,4.554655552E0,3.048366070E0,6.485533714E-1,5.518880717E0
8.125411625E0,3.812735796E0,2.740500927E0,5.890492797E-1,4.732259358E0
8.135414625E0,3.161032200E0,2.182225227E0,6.481726170E-1,3.895427994E0
8.145417625E0,2.617073774E0,1.671743035E0,8.244565725E-1,3.213024830E0
8.155420625E0,2.028699636E0,1.296987772E0,9.982662797E-1,2.606594533E0
8.165423625E0,1.396566391E0,1.023154616E0,1.053133488E0,2.026408941E0
8.175426625E0,7.619709373E-1,7.801305056E-1,9.602140784E-1,1.453001855E0
8.185428625E0,2.732704878E-1,4.359667003E-1,7.331686616E-1,8.957008483E-1
8.195431625E0,3.560718149E-2,1.061117128E-1,4.282373488E-1,4.426226314E-1
8.205434625E0,8.390094340E-2,-1.171943396E-1,3.760178089E-1,4.026950138E-1
8.215437625E0,3.084083200E-1,-1.497898698E-1,4.657434225E-1,5.783334959E-1
8.225440625E0,6.038303971E-1,-7.889863849E-2,5.683313608E-1,8.329685945E-1
8.235442625E0,8.405270576E-1,6.347721815E-2,6.192250252E-1,1.045922905E0
8.245445625E0,1.003552198E0,1.029729620E-1,6.320154071E-1,1.190446942E0
8.255448625E0,1.053365588E0,8.323477209E-2,6.044358015E-1,1.217312502E0
8.265451625E0,9.727666974E-1,2.232135832E-2,5.819235444E-1,1.133758485E0
8.275454625E0,7.946683764E-1,-6.088160351E-2,5.504369140E-1,9.685996048E-1
8.285456625E0,5.662934780E-1,-1.717431396E-1,5.068026185E-1,7.791231632E-1
8.295459625E0,3.337125182E-1,-3.660876453E-1,4.690776169E-1,6.822155228E-1
8.305462625E0,1.082048193E-1,-5.907583237E-1,4.524744153E-1,7.519553021E-1
8.315465625E0,-9.952910244E-2,-7.639552951E-1,3.972268701E-1,8.667888563E-1
8.325468625E0,-3.056426048E-1,-8.559190631E-1,3.076687753E-1,9.595180664E-1
8.335470625E0,-4.991404712E-1,-8.945598602E-1,2.215932757E-1,1.048084984E0
8.345473625E0,-6.616894007E-1,-8.689282537E-1,1.686371118E-1,1.105127888E0
8.355476625E0,-7.804179192E-1,-7.984956503E-1,1.276515871E-1,1.123807083E0
8.365479625E0,-8.716437221E-1,-7.696732879E-1,1.047023311E-1,1.167528298E0
8.375482625E0,-9.883469939E-1,-7.161949277E-1,7.879838347E-2,1.223100217E0
8.385484625E0,-1.165284157E0,-7.113717198E-1,2.741162479E-2,1.365535897E0
8.395487625E0,-1.383507729E0,-7.221642733E-1,-2.885022387E-2,1.560912300E0
8.405490625E0,-1.619636893E0,-7.605031729E-1,-1.046621650E-1,1.792356803E0
8.415493625E0,-1.861358523E0,-8.710712194E-1,-2.512989342E-1,2.070403771E0
8.425496625E0,-2.153566360E0,-1.008970261E0,-4.127847552E-1,2.413764759E0
8.435499625E0,-2.441122055E0,-1.151895642E0,-4.985668659E-1,2.744906078E0
8.445501625E0,-2.794925213E0,-1.157515764E0,-4.608922005E-1,3.060044331E0
8.455504625E0,-3.267368555E0,-8.430663943E-1,-3.259759247E-1,3.390091226E0
8.465507625E0,-3.786966324E0,-3.719460070E-1,-1.122971773E-1,3.806844944E0
8.475510625E0,-4.266324520E0,2.813827991E-1,9.589792043E-2,4.276668984E0
8.485513625E0,-4.641847610E0,1.040895820E0,2.045072317E-1,4.761516203E0
8.495515625E0,-4.943063259E0,1.795056105E0,1.755150706E-1,5.261834884E0
8.505518625E0,-5.267871857E0,2.600215912E0,4.638132080E-2,5.874840246E0
8.515521625E0,-5.772542000E0,3.225478888E0,-3.064374626E-1,6.619657024E0
8.525524625E0,-6.342361450E0,3.390761614E0,-9.355759621E-1,7.252455823E0
8.535527625E0,-6.515300274E0,2.913976192E0,-1.569360137E0,7.307755206E0
8.545529625E0,-5.597611904E0,2.079813719E0,-1.789872527E0,6.233981697E0
8.555532625E0,-3.920075178E0,1.668437600E0,-1.571149588E0,4.540835216E0
8.565535625E0,-2.152500153E0,1.437291265E0,-1.284592628E0,2.889505374E0
8.575538625E0,-5.078836083E-1,1.141458035E0,-1.110166192E0,1.671329165E0
8.585541625E0,8.938350677E-1,7.258205414E-1,-1.196506381E0,1.660537295E0
8.595543625E0,1.889128327E0,3.373452723E-1,-1.529250979E0,2.453816666E0
8.605546625E0,2.514885902E0,1.736455560E-1,-1.896748781E0,3.154751943E0
8.615549625E0,2.910525799E0,1.925133914E-1,-2.114289045E0,3.602560201E0
8.625552625E0,3.149646521E0,3.399251997E-1,-2.150140524E0,3.828697771E0
8.635555625E0,3.251592159E0,5.965483189E-1,-2.056770802E0,3.893459592E0
8.645557625E0,3.243615150E0,9.157359004E-1,-1.906614900E0,3.872310920E0
8.655560625E0,3.168073416E0,1.144185185E0,-1.738115788E0,3.790368768E0
8.665563625E0,3.060395479E0,1.303431034E0,-1.572710633E0,3.679452634E0
8.675566625E0,2.948638916E0,1.443071485E0,-1.387141109E0,3.563858474E0
8.685569625E0,2.821693897E0,1.470036983E0,-1.166118503E0,3.388627679E0
8.695571958E0,2.683058739E0,1.329887629E0,-9.190188646E-1,3.132411367E0
8.705573958E0,2.531414032E0,1.024134040E0,-6.788664460E-1,2.813852730E0
8.715576958E0,2.373034954E0,6.384563446E-1,-4.776247442E-1,2.503407037E0
8.725579958E0,2.167181730E0,3.128899932E-1,-3.326704800E-1,2.214779097E0
8.735582958E0,1.938964844E0,-1.083885413E-2,-2.375853211E-1,1.953496591E0
8.745585958E0,1.713304758E0,-2.801118791E-1,-1.857136041E-1,1.745956873E0
8.755587958E0,1.497717857E0,-4.184136987E-1,-1.838543713E-1,1.565896304E0
8.765590958E0,1.313317180E0,-4.291385114E-1,-2.267600298E-1,1.400136417E0
8.775593958E0,1.160308003E0,-3.967514634E-1,-2.817555368E-1,1.258218013E0
8.785596958E0,1.050230026E0,-3.499307036E-1,-3.241384029E-1,1.153473151E0
8.795599958E0,9.823396802E-1,-3.149093688E-1,-3.323070407E-1,1.083783709E0
8.805601958E0,9.470506907E-1,-2.958847880E-1,-2.969644964E-1,1.035683702E0
8.815604958E0,9.320563674E-1,-2.724699676E-1,-2.105198801E-1,9.936234574E-1
8.825607958E0,9.132440686E-1,-2.224648297E-1,-5.762967840E-2,9.417146644E-1
8.835610958E0,8.684423566E-1,-1.524153501E-1,1.111502871E-1,8.886939586E-1
8.845613958E0,7.976400852E-1,-9.440823644E-2,2.455376536E-1,8.398996130E-1
8.855615958E0,7.250960469E-1,-7.859018445E-2,3.273618817E-1,7.994413649E-1
8.865618958E0,6.492958069E-1,-1.029202864E-1,3.677290082E-1,7.532610793E-1
8.875621958E0,5.705690980E-1,-1.365005672E-1,3.820941746E-1,7.001267447E-1
8.885624958E0,4.635795355E-1,-1.470386833E-1,3.836779594E-1,6.194635878E-1
8.895627958E0,3.126080334E-1,-1.181751937E-1,4.032177329E-1,5.237114655E-1
8.905629958E0,9.995008260E-2,-4.914526641E-2,4.295414984E-1,4.437467466E-1
8.915632958E0,-1.901381612E-1,6.540199369E-2,4.377917051E-1,4.817587759E-1
8.925635958E0,-5.526319146E-1,1.982551217E-1,3.931131661E-1,7.065727759E-1
8.935638958E0,-9.771875739E-1,3.480861783E-1,2.784061432E-1,1.074043539E0
8.945641958E0,-1.431422472E0,4.914957881E-1,7.507324964E-2,1.515313300E0
8.955643958E0,-1.880606413E0,6.207538247E-1,-1.905413866E-1,1.989553169E0
8.965646958E0,-2.297457457E0,5.885298848E-1,-4.921425283E-1,2.422164829E0
8.975649958E0,-2.672673464E0,3.469023705E-1,-8.350040317E-1,2.821481248E0
8.985652958E0,-3.012596607E0,-1.349555999E-1,-1.179729462E0,3.238165057E0
8.995655958E0,-3.307439804E0,-8.832816482E-1,-1.471241236E0,3.726109942E0
9.005657958E0,-3.434425354E0,-1.656064391E0,-1.529795885E0,4.108296755E0
9.015660958E0,-3.356512308E0,-2.001813650E0,-1.398417354E0,4.150783524E0
9.025663958E0,-3.254702330E0,-1.703829646E0,-1.317130804E0,3.902685777E0
9.035666958E0,-3.252937555E0,-9.841741323E-1,-1.301636100E0,3.639293612E0
9.045669958E0,-3.264281034E0,-2.490671426E-1,-1.311038017E0,3.526526024E0
9.055671958E0,-3.146994829E0,2.507685721E-1,-1.376387239E0,3.443966196E0
9.065674958E0,-2.899964094E0,3.906100988E-1,-1.496542335E0,3.286640679E0
9.075677958E0,-2.482984543E0,1.716700792E-1,-1.606952548E0,2.962596724E0
9.085680958E0,-1.957873344E0,-1.970216632E-1,-1.629906297E0,2.555128197E0
9.095683958E0,-1.479954243E0,-5.727414489E-1,-1.518301129E0,2.196254914E0
9.105685958E0,-1.109599590E0,-8.665866256E-1,-1.299490452E0,1.915948607E0
9.115688958E0,-8.318917155E-1,-9.405979514E-1,-1.016840219E0,1.615776087E0
9.125691958E0,-6.136725545E-1,-7.504783273E-1,-7.282877564E-1,1.212524136E0
9.135694958E0,-4.070146382E-1,-4.360710382E-1,-5.117018223E-1,7.859119677E-1
9.145697958E0,-1.671133339E-1,-1.634767950E-1,-3.935144842E-1,4.577173561E-1
9.155699958E0,8.976799995E-2,4.585861228E-3,-3.420189619E-1,3.536329937E-1
9.165702958E0,3.206382394E-1,7.663635164E-2,-3.236444890E-1,4.619824307E-1
9.175705958E0,5.241898894E-1,5.423281342E-2,-3.302393556E-1,6.219117865E-1
9.185708958E0,6.925685406E-1,8.461063728E-3,-3.394350111E-1,7.713228246E-1
9.195711958E0,8.118799925E-1,-4.789346084E-2,-3.206959367E-1,8.742361178E-1
9.205714958E0,8.784422278E-1,-9.653503448E-2,-2.744884789E-1,9.253775908E-1
9.215716958E0,9.108700752E-1,-1.052764654E-1,-2.143413424E-1,9.416526107E-1
9.225719958E0,9.289183021E-1,-9.976372123E-2,-1.509471983E-1,9.463757545E-1
9.235722958E0,9.301943779E-1,-1.136374325E-1,-6.746526062E-2,9.395353150E-1
9.245725958E0,9.019278884E-1,-1.510710865E-1,2.471606620E-2,9.148263622E-1
9.255728958E0,8.419973254E-1,-2.273801267E-1,1.085345298E-1,8.788862055E-1
9.265730958E0,7.704304457E-1,-3.373060822E-1,1.619338393E-1,8.564817763E-1
9.275733958E0,7.126558423E-1,-4.326745570E-1,1.761929393E-1,8.521323686E-1
9.285736958E0,6.818547845E-1,-4.689106047E-1,1.654572040E-1,8.439070972E-1
9.295739958E0,6.882362962E-1,-4.315286577E-1,1.364871562E-1,8.237201743E-1
9.305742958E0,7.349769473E-1,-3.690389097E-1,1.018058732E-1,8.287009507E-1
9.315744958E0,7.935882807E-1,-2.989360094E-1,7.607396692E-2,8.514295892E-1
9.325747958E0,8.188257217E-1,-2.082010508E-1,7.808465511E-2,8.484812629E-1
9.335750958E0,8.009158373E-1,-1.499177814E-1,1.036901549E-1,8.213970829E-1
9.345753958E0,7.468459010E-1,-9.149096161E-2,1.593755037E-1,7.691228426E-1
9.355756958E0,6.731097698E-1,-3.025139216E-3,2.341204137E-1,7.126698266E-1
9.365758958E0,5.971345305E-1,1.028400436E-1,3.173599243E-1,6.840051489E-1
9.375761958E0,5.360084772E-1,2.026562393E-1,3.879526854E-1,6.920129515E-1
9.385764958E0,4.978587031E-1,2.730286717E-1,4.376896024E-1,7.169240768E-1
9.395767958E0,4.759601057E-1,2.638526559E-1,4.790245295E-1,7.249970662E-1
9.405770958E0,4.550593495E-1,1.363365054E-1,4.915395379E-1,6.835771878E-1
9.415772958E0,4.324926138E-1,-5.118750408E-2,4.764793515E-1,6.455250529E-1
9.425775958E0,3.921803534E-1,-1.916577965E-1,4.396182597E-1,6.195178406E-1
9.435778958E0,3.343946040E-1,-2.075371295E-1,3.794648051E-1,5.467037128E-1
9.445781958E0,2.585863769E-1,-1.502650380E-1,3.162171543E-1,4.352468089E-1
9.455784958E0,1.597729921E-1,-5.686956644E-2,2.669339478E-1,3.162519393E-1
9.465786958E0,6.042269617E-2,1.125634015E-1,2.275356799E-1,2.609480929E-1
9.475789958E0,-3.541993443E-3,3.368487358E-1,2.129790038E-1,3.985469515E-1
9.485792958E0,-2.573278360E-2,5.653695464E-1,2.363429070E-1,6.133211800E-1
9.495795958E0,-6.630160846E-3,6.497558355E-1,2.635621130E-1,7.012072392E-1
9.505798958E0,4.640749097E-2,5.392972231E-1,2.881241739E-1,6.131971050E-1
9.515800958E0,1.165495217E-1,3.476366699E-1,3.116182387E-1,4.811870446E-1
9.525803958E0,2.252760082E-1,1.650407612E-1,3.467916548E-1,4.452551904E-1
9.535806958E0,3.826509714E-1,-7.162440568E-2,3.698225021E-1,5.369548440E-1
9.545809958E0,5.890520215E-1,-3.830659091E-1,3.703306317E-1,7.942710819E-1
9.555812958E0,8.169041872E-1,-6.564753056E-1,3.605294824E-1,1.108275140E0
9.565814958E0,1.030267239E0,-8.137893081E-1,3.388657272E-1,1.355925367E0
9.575817958E0,1.196339130E0,-8.713235855E-1,3.227983415E-1,1.514803906E0
9.585820958E0,1.305698633E0,-7.970227599E-1,3.131590486E-1,1.561461748E0
9.595823958E0,1.345822096E0,-6.227849722E-1,3.219728470E-1,1.517486326E0
9.605826958E0,1.324277639E0,-4.159665406E-1,3.583548367E-1,1.433582093E0
9.615828958E0,1.234572291E0,-2.317719162E-1,3.997713625E-1,1.318220052E0
9.625831958E0,1.096293688E0,-6.004729494E-2,4.115233719E-1,1.172525912E0
9.635834958E0,9.357555509E-1,8.315414190E-2,4.104891419E-1,1.025209441E0
9.645837958E0,7.699074745E-1,1.975978911E-1,4.051721394E-1,8.921697756E-1
9.655840958E0,6.075448394E-1,2.657517195E-1,4.033716023E-1,7.761722475E-1
9.665842958E0,4.752318263E-1,3.454391062E-1,4.012410641E-1,7.114547465E-1
9.675845958E0,3.708113730E-1,4.450856149E-1,3.927442431E-1,6.998930772E-1
9.685848958E0,2.808255851E-1,6.194752455E-1,3.852013946E-1,7.816602225E-1
9.695852833E0,1.896864623E-1,8.398567438E-1,3.738654554E-1,9.386776246E-1
9.705855833E0,1.086472720E-1,9.978144169E-1,3.639659584E-1,1.067665237E0
9.715857833E0,4.091054946E-2,9.549146295E-1,3.436549902E-1,1.015694036E0
9.725860833E0,-5.258690938E-2,7.143281102E-1,3.266003728E-1,7.872088894E-1
9.735863833E0,-1.828080267E-1,4.059074223E-1,3.164409399E-1,5.461817267E-1
9.745866833E0,-3.115580082E-1,1.673808694E-1,3.068839312E-1,4.682547331E-1
9.755869833E0,-3.625228107E-1,8.235251904E-2,3.052032292E-1,4.809924498E-1
9.765871833E0,-2.978183627E-1,1.165051609E-1,3.087963462E-1,4.445496745E-1
9.775874833E0,-1.304000318E-1,2.105341256E-1,3.150603473E-1,4.007390782E-1
9.785877833E0,9.653510898E-2,3.176065087E-1,3.129892051E-1,4.562402483E-1
9.795880833E0,3.151556849E-1,4.282552004E-1,3.002663255E-1,6.106435037E-1
9.805883833E0,4.646950960E-1,5.321856141E-1,2.747069001E-1,7.580415167E-1
9.815885833E0,5.343613625E-1,6.287777424E-1,2.405743152E-1,8.595228421E-1
9.825888833E0,5.290060043E-1,7.038397789E-1,1.980604082E-1,9.024775412E-1
9.835891833E0,4.751583636E-1,7.200339437E-1,1.713233441E-1,8.795317156E-1
9.845894833E0,3.889329433E-1,6.884991527E-1,1.748254150E-1,8.098542112E-1
9.855897833E0,2.830053270E-1,6.333372593E-1,2.180705220E-1,7.271608155E-1
9.865899833E0,1.772304326E-1,5.767967701E-1,3.056136668E-1,6.763910508E-1
9.875902833E0,7.850940526E-2,5.432739258E-1,4.214406013E-1,6.920422427E-1
9.885905833E0,-1.021593437E-2,5.222818255E-1,5.510609150E-1,7.593094248E-1
9.895908833E0,-9.270867705E-2,5.360070467E-1,6.619609594E-1,8.567909691E-1
9.905911833E0,-1.654289514E-1,6.118195057E-1,7.427708507E-1,9.764212114E-1
9.915913833E0,-2.257171422E-1,7.386242747E-1,7.818961740E-1,1.099033973E0
9.925916833E0,-2.759747207E-1,9.143220782E-1,7.865638733E-1,1.237267003E0
9.935919833E0,-3.250736892E-1,1.135976553E0,7.527802587E-1,1.400997413E0
9.945922833E0,-3.661034107E-1,1.309098363E0,7.035365701E-1,1.530599208E0
9.955925833E0,-3.970964849E-1,1.389282227E0,6.522980928E-1,1.585333884E0
9.965927833E0,-4.205091596E-1,1.327625513E0,6.104156375E-1,1.520534349E0
9.975930833E0,-4.254032373E-1,1.150567532E0,5.694354773E-1,1.352416475E0
9.985933833E0,-4.139833450E-1,9.366667867E-1,5.360317230E-1,1.155879270E0
9.995936833E0,-3.746657073E-1,7.571654320E-1,5.335010886E-1,9.991482849E-1
1.000593983E1,-3.024764657E-1,6.282226443E-1,5.553454161E-1,8.913833262E-1
1.001594183E1,-2.123346329E-1,5.432665944E-1,5.697078109E-1,8.153475202E-1
1.002594483E1,-1.158861369E-1,5.345841646E-1,5.501216054E-1,7.757857994E-1
1.003594783E1,-2.806782722E-2,5.467450023E-1,4.835178852E-1,7.304159402E-1
1.004595083E1,4.114479944E-2,5.337759256E-1,3.718627393E-1,6.518370427E-1
1.005595383E1,7.814534754E-2,4.772689044E-1,2.417721152E-1,5.406903533E-1
1.006595583E1,7.901193947E-2,3.523344398E-1,1.305867434E-1,3.839731000E-1
1.007595883E1,6.441478431E-2,1.842423826E-1,5.219012871E-2,2.020354660E-1
1.008596183E1,4.763900861E-2,2.953376621E-2,5.722761154E-3,5.634242170E-2
1.009596483E1,2.765418030E-3,-6.364756823E-2,-2.827009745E-2,6.969834207E-2
1.010596683E1,-7.859016210E-2,-8.894013613E-2,-4.976793379E-2,1.286996839E-1
1.011596983E1,-1.870875210E-1,-8.559300005E-2,-6.711363047E-2,2.164073510E-1
1.012597283E1,-2.981453538E-1,-6.892161071E-2,-7.386954129E-2,3.147976327E-1
1.013597583E1,-3.871965408E-1,-1.092065945E-1,-4.353763908E-2,4.046514148E-1
1.014597883E1,-4.348412752E-1,-2.581476271E-1,3.340960294E-2,5.067971326E-1
1.015598183E1,-4.738742411E-1,-4.381474257E-1,1.176153719E-1,6.560208371E-1
1.016598383E1,-5.252061486E-1,-5.242412686E-1,1.647381485E-1,7.601375296E-1
1.017598683E1,-5.835306644E-1,-4.853899479E-1,1.536039114E-1,7.744066112E-1
1.018598983E1,-6.127167940E-1,-4.031113386E-1,8.339952677E-2,7.381572340E-1
1.019599283E1,-5.728534460E-1,-2.922655940E-1,-5.213166773E-2,6.452115613E-1
1.020599583E1,-4.572179317E-1,-1.411954015E-1,-2.211310863E-1,5.271464084E-1
1.021599783E1,-2.963245213E-1,3.265057877E-2,-3.796827197E-1,4.827351757E-1
1.022600083E1,-8.444981277E-2,2.133820057E-1,-5.249102116E-1,5.728825197E-1
1.023600383E1,1.649400592E-1,2.410590649E-1,-6.343206167E-1,6.983389869E-1
1.024600683E1,4.059947729E-1,8.554910123E-2,-6.769125462E-1,7.939527691E-1
1.025600883E1,6.105621457E-1,-1.961702406E-1,-6.813913584E-1,9.357152774E-1
1.026601183E1,7.150749564E-1,-4.722167253E-1,-6.528660059E-1,1.077290514E0
1.027601483E1,6.899912953E-1,-7.092639804E-1,-5.881485939E-1,1.151113439E0
1.028601783E1,5.519090295E-1,-8.442133069E-1,-4.913767576E-1,1.121940641E0
1.029602083E1,3.248557746E-1,-8.350917697E-1,-3.882373273E-1,9.765437832E-1
1.030602283E1,4.942926764E-2,-6.861206293E-1,-2.855090797E-1,7.447954115E-1
1.031602583E1,-2.413429022E-1,-4.788353443E-1,-1.763354540E-1,5.644677810E-1
1.032602883E1,-5.030445457E-1,-3.123579621E-1,-5.489611998E-2,5.946720907E-1
1.033603183E1,-6.949050426E-1,-2.714981139E-1,6.248758733E-2,7.486714518E-1
1.034603483E1,-7.982112169E-1,-3.775049746E-1,1.753488928E-1,9.002212988E-1
1.035603683E1,-8.208706379E-1,-5.603195429E-1,2.944074571E-1,1.036562755E0
1.036603983E1,-7.682004571E-1,-7.774444222E-1,3.982254565E-1,1.163243434E0
1.037604283E1,-6.754429936E-1,-9.743047953E-1,4.730198979E-1,1.276417211E0
1.038604583E1,-5.824201107E-1,-1.078201652E0,5.058990121E-1,1.325769888E0
1.039604883E1,-5.095832944E-1,-1.081461191E0,4.733968377E-1,1.285821919E0
1.040605083E1,-4.519492388E-1,-9.418597221E-1,3.925720453E-1,1.116006569E0
1.041605383E1,-3.596200943E-1,-6.714995503E-1,2.652825117E-1,8.066058947E-1
1.042605683E1,-2.302354723E-1,-3.615342379E-1,1.207977608E-1,4.453172766E-1
1.043605983E1,-9.625500441E-2,-5.207277462E-2,-2.262924984E-2,1.117527748E-1
1.044606283E1,9.680747986E-3,2.297810018E-1,-1.271423399E-1,2.627892697E-1
1.045606483E1,7.891340554E-2,4.147756994E-1,-1.662499905E-1,4.537678544E-1
1.046606783E1,1.203404739E-1,4.990000129E-1,-1.372124851E-1,5.313286258E-1
1.047607083E1,1.304586530E-1,5.031257272E-1,-4.121377692E-2,5.213957546E-1
1.048607383E1,1.062984616E-1,4.741462469E-1,9.003132582E-2,4.941858618E-1
1.049607683E1,6.146243960E-2,4.173330665E-1,2.398760468E-1,4.852680060E-1
1.050607883E1,1.672319695E-2,3.441752195E-1,3.772911429E-1,5.109646305E-1
1.051608183E1,-1.846233010E-2,3.067687452E-1,4.776317179E-1,5.679612475E-1
1.052608483E1,-2.859805524E-2,3.308663666E-1,5.274581313E-1,6.232996724E-1
1.053608783E1,-1.145013794E-2,4.055285752E-1,5.294807553E-1,6.670340330E-1
1.054609083E1,3.122888319E-2,5.294278860E-1,5.010538697E-1,7.296054482E-1
1.055609283E1,8.072262257E-2,6.568672657E-1,4.430335164E-1,7.964103485E-1
1.056609583E1,1.234429181E-1,7.420660257E-1,3.707886338E-1,8.386801247E-1
1.057609883E1,1.423465759E-1,7.308200598E-1,2.930110097E-1,8.001349631E-1
1.058610183E1,1.157596111E-1,6.647473574E-1,2.266115546E-1,7.117879835E-1
1.059610483E1,4.238884151E-2,5.575986505E-1,1.716948599E-1,5.849719598E-1
1.060610683E1,-7.359182835E-2,4.248155653E-1,1.368002594E-1,4.523254721E-1
1.061610983E1,-2.092493325E-1,3.013805151E-1,1.450477093E-1,3.945305261E-1
1.062611283E1,-3.307483494E-1,1.789504588E-1,1.786269844E-1,4.163235964E-1
1.063611583E1,-4.144275784E-1,7.826878130E-2,2.312763333E-1,4.810041188E-1
1.064611883E1,-4.677771032E-1,4.842113331E-2,2.970502973E-1,5.562363738E-1
1.065612083E1,-5.052376986E-1,8.564174175E-2,3.458798826E-1,6.182495719E-1
1.066612383E1,-5.214751959E-1,1.535470188E-1,3.786090612E-1,6.624634995E-1
1.067612683E1,-5.363256335E-1,2.544994950E-1,4.018864930E-1,7.168876700E-1
1.068612983E1,-5.482374430E-1,3.582381308E-1,4.076109827E-1,7.713919661E-1
1.069613133E1,-5.734464526E-1,4.523469210E-1,3.949797153E-1,8.303418251E-1
1.070613433E1,-6.298463345E-1,5.362686515E-1,3.711249828E-1,9.066555159E-1
1.071613733E1,-7.188784480E-1,5.936016440E-1,3.429504335E-1,9.933600227E-1
1.072614033E1,-8.391353488E-1,6.162206531E-1,3.169081807E-1,1.088258619E0
1.073614333E1,-9.751338959E-1,6.150794625E-1,2.943052053E-1,1.189884202E0
1.074614533E1,-1.113381505E0,5.585126281E-1,2.791906893E-1,1.276519554E0
1.075614833E1,-1.238165140E0,4.750973880E-1,2.606974542E-1,1.351567092E0
1.076615133E1,-1.333019018E0,3.919087350E-1,2.357990146E-1,1.409302428E0
1.077615433E1,-1.400203943E0,3.360323608E-1,2.229814827E-1,1.457123733E0
1.078615733E1,-1.439949751E0,3.096601367E-1,2.221444547E-1,1.489527725E0
1.079615933E1,-1.426520467E0,3.219265044E-1,2.443486452E-1,1.482667723E0
1.080616233E1,-1.385839820E0,3.393771052E-1,2.673447728E-1,1.451620492E0
1.081616533E1,-1.343520522E0,3.447916806E-1,2.927082777E-1,1.417606021E0
1.082616833E1,-1.312622190E0,3.151547015E-1,3.039425611E-1,1.383719834E0
1.083617133E1,-1.283804536E0,2.269894630E-1,2.996168733E-1,1.337702722E0
1.084617333E1,-1.267384291E0,6.802857667E-2,2.902830243E-1,1.301981206E0
1.085617633E1,-1.258844137E0,-1.256704330E-1,2.746560574E-1,1.294572350E0
1.086617933E1,-1.264963865E0,-3.204830587E-1,2.544471920E-1,1.329506053E0
1.087618233E1,-1.273239851E0,-4.355239570E-1,2.480551451E-1,1.368339209E0
1.088618533E1,-1.261460900E0,-4.916247725E-1,2.753360569E-1,1.381589108E0
1.089618733E1,-1.216867208E0,-5.260967016E-1,2.746911049E-1,1.353882840E0
1.090619033E1,-1.140244842E0,-5.701962709E-1,2.504768372E-1,1.299238520E0
1.091619333E1,-1.045060873E0,-6.366851926E-1,2.445463538E-1,1.247927555E0
1.092619633E1,-9.430421591E-1,-6.264088154E-1,2.646822333E-1,1.162657818E0
1.093619933E1,-8.620470166E-1,-5.019908547E-1,2.684517503E-1,1.033047056E0
1.094620133E1,-8.552652597E-1,-3.436848521E-1,2.357718498E-1,9.514127954E-1
1.095620433E1,-9.319132566E-1,-2.225696594E-1,1.852464378E-1,9.758666988E-1
1.096620733E1,-1.061190486E0,-1.651636213E-1,1.275325418E-1,1.081512283E0
1.097621033E1,-1.204236269E0,-1.407881379E-1,7.589554042E-2,1.214811271E0
1.098621333E1,-1.317196608E0,-1.600409299E-1,5.083306879E-2,1.327856921E0
1.099621533E1,-1.372729301E0,-2.568416893E-1,5.428772420E-2,1.397605290E0
1.100621833E1,-1.359580159E0,-3.847818077E-1,7.581938058E-2,1.415013720E0
1.101622133E1,-1.300768614E0,-4.895155430E-1,9.339287132E-2,1.392963274E0
1.102622433E1,-1.222902298E0,-5.389789939E-1,9.859082848E-2,1.340040499E0
1.103622733E1,-1.133346558E0,-5.097249746E-1,9.929195046E-2,1.246656673E0
1.104622933E1,-1.007014871E0,-3.866842985E-1,8.410421014E-2,1.081978380E0
1.105623233E1,-8.425620198E-1,-2.689776123E-1,7.579141110E-2,8.876959227E-1
1.106623533E1,-6.674751639E-1,-2.068820149E-1,6.960328668E-2,7.022591260E-1
1.107623833E1,-5.231977105E-1,-1.315138489E-1,6.254335493E-2,5.430869249E-1
1.108624033E1,-4.157021642E-1,-6.238298118E-2,6.254362315E-2,4.249842708E-1
1.109624333E1,-3.474597931E-1,-6.752405781E-3,8.028913289E-2,3.566794747E-1
1.110624633E1,-2.912172973E-1,6.612899154E-2,1.210908890E-1,3.222476705E-1
1.111624933E1,-2.469398975E-1,6.859327108E-2,1.810569316E-1,3.137928653E-1
1.112625233E1,-1.976197660E-1,-6.087097526E-2,2.679095268E-1,3.384292572E-1
1.113625433E1,-1.410439610E-1,-2.699746490E-1,3.741367459E-1,4.824500126E-1
1.114625733E1,-5.164804310E-2,-5.615670681E-1,4.693767130E-1,7.337162879E-1
1.115626033E1,7.793585211E-2,-9.173632264E-1,5.027412176E-1,1.048989046E0
1.116626333E1,1.993349791E-1,-1.168992996E0,4.523784518E-1,1.269222330E0
1.117626633E1,2.856444120E-1,-1.284579992E0,3.414090574E-1,1.359521471E0
1.118626833E1,3.347299397E-1,-1.301172256E0,1.780137420E-1,1.355279405E0
1.119627133E1,3.201627135E-1,-1.269449949E0,5.005657673E-3,1.309210599E0
1.120627433E1,2.045152038E-1,-1.158903956E0,-1.642225236E-1,1.188214579E0
1.121627733E1,-1.898297295E-2,-9.540535808E-1,-2.898786068E-1,9.973004537E-1
1.122628033E1,-3.335608840E-1,-7.217782736E-1,-3.455919325E-1,8.669835773E-1
1.123628233E1,-6.538289785E-1,-5.652009845E-1,-3.122405708E-1,9.189334362E-1
1.124628533E1,-9.341802001E-1,-4.860790074E-1,-1.983206421E-1,1.071585986E0
1.125628833E1,-1.137608171E0,-4.313569665E-1,-1.771989465E-2,1.216772442E0
1.126629133E1,-1.219534516E0,-3.199939430E-1,1.800387353E-1,1.273606888E0
1.127629333E1,-1.131008267E0,-1.684997976E-1,3.480066061E-1,1.195274228E0
1.128629633E1,-8.688635230E-1,-1.156205982E-1,4.487518370E-1,9.847183128E-1
1.129629933E1,-4.747202098E-1,-1.335774064E-1,4.438108802E-1,6.634533130E-1
1.130630233E1,-2.278337255E-2,-1.343406588E-1,3.592009246E-1,3.841767808E-1
1.131630533E1,4.000371695E-1,-5.260661989E-2,2.321887463E-1,4.655199323E-1
1.132630733E1,7.066519856E-1,1.069881022E-1,9.147158265E-2,7.205348939E-1
1.133631033E1,8.815815449E-1,3.898904026E-1,1.751665585E-2,9.641096304E-1
1.134631333E1,1.000944972E0,5.319178104E-1,-1.600774750E-2,1.133615297E0
1.135631633E1,1.062748075E0,6.854836941E-1,-1.436528563E-2,1.264724368E0
1.136631933E1,1.160160303E0,9.820399880E-1,1.418884993E-1,1.526599755E0
1.137632133E1,1.415067554E0,1.101904869E0,3.727399409E-1,1.831814834E0
1.138632433E1,1.789227009E0,1.024086237E0,6.037680507E-1,2.148167072E0
1.139632733E1,2.226034164E0,8.447569609E-1,8.273544908E-1,2.520586812E0
1.140633033E1,2.676459074E0,5.780592561E-1,1.022776961E0,2.922953710E0
1.141633333E1,3.073341846E0,2.429305911E-1,1.161319256E0,3.294405529E0
1.142633533E1,3.367585659E0,-8.095534891E-2,1.240852475E0,3.589833117E0
1.143633833E1,3.545897245E0,-3.429032266E-1,1.275427818E0,3.783871829E0
1.144634133E1,3.637664080E0,-5.166025758E-1,1.307064056E0,3.899730071E0
1.145634433E1,3.681344271E0,-6.010715961E-1,1.337480783E0,3.962630130E0
1.146634733E1,3.679815054E0,-5.587145686E-1,1.371215582E0,3.966539168E0
1.147634933E1,3.606893063E0,-3.894714117E-1,1.383032322E0,3.882543490E0
1.148635233E1,3.462830544E0,-1.298358440E-1,1.392135024E0,3.734446766E0
1.149635533E1,3.287274599E0,2.116477340E-1,1.386895061E0,3.574135834E0
1.150635833E1,3.105715752E0,6.468538046E-1,1.355378628E0,3.449774108E0
1.151636033E1,2.912070036E0,1.099392653E0,1.301603436E0,3.373868344E0
1.152636333E1,2.701769352E0,1.445243597E0,1.229801416E0,3.301620543E0
1.153636633E1,2.486831188E0,1.621967554E0,1.157427192E0,3.186651190E0
1.154636933E1,2.270118237E0,1.694717050E0,1.083992124E0,3.033239458E0
1.155637233E1,2.062927723E0,1.692533970E0,1.015291214E0,2.855023341E0
1.156637433E1,1.858087778E0,1.606889606E0,9.581435323E-1,2.636782779E0
1.157637733E1,1.650413632E0,1.459750772E0,9.172812700E-1,2.386659255E0
1.158638033E1,1.441693664E0,1.231110930E0,8.805536032E-1,2.090332364E0
1.159638333E1,1.240277290E0,9.751964211E-1,8.494340777E-1,1.791880038E0
1.160638633E1,1.054153442E0,7.518184781E-1,8.137854934E-1,1.529286544E0
1.161638833E1,8.689711690E-1,5.715603828E-1,7.683128119E-1,1.293095797E0
1.162639133E1,6.766397953E-1,4.437102675E-1,7.069147229E-1,1.074452716E0
1.163639433E1,4.625664651E-1,3.581219316E-1,6.240280867E-1,8.553537897E-1
1.164639733E1,2.493633926E-1,3.163116276E-1,5.147958994E-1,6.536436073E-1
1.165640033E1,2.912506089E-2,3.099138439E-1,3.787669241E-1,4.902644619E-1
1.166640233E1,-1.781642139E-1,3.098275661E-1,2.229813039E-1,4.212555872E-1
1.167640533E1,-3.735986054E-1,3.395069838E-1,4.020191729E-2,5.064159398E-1
1.168640833E1,-5.646910667E-1,3.829985261E-1,-1.717127264E-1,7.035972799E-1
1.169641125E1,-7.613826394E-1,3.394685090E-1,-3.961713910E-1,9.229811283E-1
1.170641325E1,-9.693462253E-1,1.776274145E-1,-6.078018546E-1,1.157845714E0
1.171641625E1,-1.176089406E0,-6.533966213E-2,-7.663498521E-1,1.405257150E0
1.172641925E1,-1.370140433E0,-3.221413791E-1,-8.653634787E-1,1.652245086E0
1.173642225E1,-1.551650405E0,-5.595030189E-1,-8.913937211E-1,1.874898763E0
1.174642525E1,-1.757593751E0,-7.513270378E-1,-8.460872173E-1,2.090332914E0
1.175642725E1,-2.049268484E0,-8.282348514E-1,-7.424806356E-1,2.331684323E0
1.176643025E1,-2.463897228E0,-6.314520240E-1,-6.063283682E-1,2.614795460E0
1.177643325E1,-2.986023664E0,-3.114406168E-1,-4.671497941E-1,3.038348484E0
1.178643625E1,-3.500112057E0,-3.127368167E-2,-3.406565785E-1,3.516789638E0
1.179643925E1,-3.901797771E0,2.932447493E-1,-2.378741801E-1,3.920025824E0
1.180644125E1,-4.156347752E0,7.030400038E-1,-1.524652690E-1,4.218143850E0
1.181644425E1,-4.335403919E0,1.299666047E0,-1.118289158E-1,4.527401538E0
1.182644725E1,-4.484010696E0,1.960172534E0,-1.814253032E-1,4.897095407E0
1.183645025E1,-4.634348392E0,2.713133335E0,-3.434964120E-1,5.381102796E0
1.184645325E1,-4.807638168E0,3.252373934E0,-5.510738492E-1,5.830523420E0
1.185645525E1,-4.887823105E0,3.108798981E0,-8.299850225E-1,5.851864741E0
1.186645825E1,-4.744893551E0,1.563120365E0,-1.199612498E0,5.137745637E0
1.187646125E1,-4.649610043E0,2.833509147E-1,-1.646786332E0,4.940755662E0
1.188646425E1,-4.608232975E0,-5.965391397E-1,-1.986836553E0,5.053631326E0
1.189646625E1,-4.683028221E0,-1.065234542E0,-2.196440220E0,5.281082047E0
1.190646925E1,-4.602792740E0,-1.185649395E0,-2.289045811E0,5.275528051E0
1.191647225E1,-4.061167717E0,-1.636098266E0,-2.238353968E0,4.917329483E0
1.192647525E1,-3.114514589E0,-2.877243757E0,-2.152105331E0,4.755027878E0
1.193647825E1,-1.707010984E0,-3.353909731E0,-1.740342379E0,4.146249942E0
1.194648025E1,-2.253187448E-1,-3.264452219E0,-1.002089143E0,3.422221424E0
1.195648325E1,1.318086743E0,-2.560656071E0,-5.601890087E-1,2.933960446E0
1.196648625E1,2.844657421E0,-1.331447363E0,-6.076896787E-1,3.199080285E0
1.197648925E1,4.138943672E0,-2.157107294E-1,-9.139339328E-1,4.244132547E0
1.198649225E1,4.806930065E0,3.436915874E-1,-1.095922232E0,4.942240999E0
1.199649425E1,4.916696548E0,5.541716814E-1,-1.051457167E0,5.058317247E0
1.200649725E1,4.708537579E0,5.272921324E-1,-9.564113617E-1,4.833537609E0
1.201650025E1,4.337092876E0,3.585076332E-1,-8.814065456E-1,4.440245471E0
1.202650325E1,4.056371212E0,3.071419001E-1,-8.112424016E-1,4.148083629E0
1.203650525E1,3.881891012E0,3.105948269E-1,-7.651044130E-1,3.968744353E0
1.204650825E1,3.782619476E0,2.972488999E-1,-7.659534216E-1,3.870820540E0
1.205651125E1,3.705209970E0,2.763617933E-1,-7.943438888E-1,3.799465618E0
1.206651425E1,3.597920895E0,1.920735538E-1,-8.551105857E-1,3.703125859E0
1.207651725E1,3.403376102E0,1.808756962E-2,-8.723629713E-1,3.513447482E0
1.208651925E1,3.164625168E0,-1.480513364E-1,-8.200041652E-1,3.272488118E0
1.209652225E1,2.917808294E0,-3.477997780E-1,-7.672711611E-1,3.036984518E0
1.210652525E1,2.672373295E0,-5.574272871E-1,-7.400589585E-1,2.828425617E0
1.211652825E1,2.422489643E0,-7.413579822E-1,-6.985887289E-1,2.627944813E0
1.212653125E1,2.166315794E0,-9.239796996E-1,-6.481308937E-1,2.442690373E0
1.213653325E1,1.894221544E0,-1.103400946E0,-5.880346894E-1,2.269659380E0
1.214653625E1,1.616912961E0,-1.208311081E0,-5.285878778E-1,2.086582933E0
1.215653925E1,1.348118663E0,-1.218420863E0,-4.771422446E-1,1.878733097E0
1.216654225E1,1.095811367E0,-1.191580534E0,-4.684228003E-1,1.685255660E0
1.217654425E1,8.666866422E-1,-1.182722688E0,-5.110999942E-1,1.552804526E0
1.218654725E1,6.693658829E-1,-1.118419886E0,-5.487597585E-1,1.414231593E0
1.219655025E1,5.179775357E-1,-1.054896712E0,-5.802702904E-1,1.310656862E0
1.220655325E1,4.232558310E-1,-1.001180768E0,-6.197250485E-1,1.251226424E0
1.221655625E1,3.735898137E-1,-9.483597875E-1,-6.658336520E-1,1.217493362E0
1.222655825E1,3.649545014E-1,-8.531152606E-1,-7.260123491E-1,1.178172894E0
1.223656125E1,3.718968928E-1,-7.381908298E-1,-7.973988652E-1,1.148511189E0
1.224656425E1,3.901552558E-1,-6.091755629E-1,-9.005286694E-1,1.155105136E0
1.225656725E1,4.153816700E-1,-4.792450070E-1,-1.045611262E0,1.222914805E0
1.226657025E1,4.518043697E-1,-3.275611997E-1,-1.179226875E0,1.304607049E0
1.227657225E1,5.047860146E-1,-1.054330021E-1,-1.248484850E0,1.350792160E0
1.228657525E1,5.581267476E-1,8.929680288E-2,-1.283505678E0,1.402450074E0
1.229657825E1,5.528778434E-1,3.469095230E-1,-1.251630068E0,1.411594118E0
1.230658125E1,4.628571868E-1,6.414120197E-1,-1.090858221E0,1.347448631E0
1.231658425E1,3.216364980E-1,7.656407952E-1,-8.701737523E-1,1.202854199E0
1.232658625E1,7.241389900E-2,6.154217720E-1,-5.300553441E-1,8.154424554E-1
1.233658925E1,-2.678574622E-1,1.434115618E-1,-1.778836399E-1,3.520753974E-1
1.234659225E1,-6.368253827E-1,-3.561593890E-1,9.682328999E-2,7.360508324E-1
1.235659525E1,-1.075554729E0,-6.253990531E-1,3.064986765E-1,1.281359976E0
1.236659725E1,-1.584406257E0,-6.390898228E-1,4.487152100E-1,1.766387366E0
1.237660025E1,-2.127600670E0,-3.949405849E-1,5.157939196E-1,2.224568732E0
1.238660325E1,-2.766886711E0,-2.337469161E-1,3.972997963E-1,2.805021715E0
1.239660625E1,-3.647423983E0,-4.444921911E-1,4.152464867E-2,3.674642746E0
1.240660925E1,-4.512845993E0,-6.187888980E-1,-3.076064289E-1,4.565446350E0
1.241661125E1,-5.063398361E0,-7.750700116E-1,-5.475717783E-1,5.151560088E0
1.242661425E1,-5.212408066E0,-9.358237386E-1,-7.250453830E-1,5.345152451E0
1.243661725E1,-5.014769554E0,-1.033635974E0,-8.220847249E-1,5.185763232E0
1.244662025E1,-4.492836952E0,-1.146693468E0,-9.200336933E-1,4.727256264E0
1.245662325E1,-3.689296484E0,-1.092079163E0,-1.054933548E0,3.989540103E0
1.246662525E1,-2.704064131E0,-8.931971192E-1,-1.223988652E0,3.099663230E0
1.247662825E1,-1.474221945E0,-3.547226787E-1,-1.406754136E0,2.068360636E0
1.248663125E1,-1.995871514E-1,3.841937184E-1,-1.544810891E0,1.604331803E0
1.249663425E1,1.008370042E0,1.181230545E0,-1.574510217E0,2.211605336E0
1.250663625E1,2.052065372E0,1.906530023E0,-1.488932252E0,3.172183518E0
1.251663925E1,2.852625132E0,2.063430786E0,-1.297800899E0,3.752266505E0
1.252664225E1,3.317354441E0,1.655703902E0,-1.079337239E0,3.861497737E0
1.253664525E1,3.466261387E0,1.059972048E0,-8.897835612E-1,3.732321467E0
1.254664825E1,3.409792900E0,4.039758146E-1,-7.147502303E-1,3.507242788E0
1.255665025E1,3.316162586E0,-7.726068795E-2,-5.218655467E-1,3.357863482E0
1.256665325E1,3.184503317E0,-4.572663307E-1,-3.983127475E-1,3.241729001E0
1.257665625E1,2.978424788E0,-7.320977449E-1,-3.669057488E-1,3.088948227E0
1.258665925E1,2.750412226E0,-8.563536406E-1,-4.362683296E-1,2.913492582E0
1.259666225E1,2.513250828E0,-8.153492808E-1,-5.483470559E-1,2.698501189E0
1.260666425E1,2.270236015E0,-6.780022979E-1,-6.549741626E-1,2.458180188E0
1.261666725E1,2.025278568E0,-4.663773477E-1,-7.348424196E-1,2.204371677E0
1.262667025E1,1.778568864E0,-2.341084331E-1,-7.817881107E-1,1.956861419E0
1.263667325E1,1.544425726E0,-7.418677211E-2,-7.829231024E-1,1.733125236E0
1.264667525E1,1.326864362E0,2.216080390E-2,-7.652019262E-1,1.531859695E0
1.265667825E1,1.102133989E0,4.920622334E-2,-7.579177022E-1,1.338491623E0
1.266668125E1,8.862043619E-1,-1.233916264E-2,-7.515056133E-1,1.162011666E0
1.267668425E1,6.669739485E-1,-1.241257936E-1,-7.522007227E-1,1.012949845E0
1.268668725E1,4.467912316E-1,-2.437922657E-1,-7.562202215E-1,9.115514779E-1
1.269668933E1,2.354156524E-1,-3.495733738E-1,-7.559421659E-1,8.654886661E-1
1.270669233E1,3.595340997E-2,-4.440237284E-1,-7.500523329E-1,8.723693146E-1
1.271669533E1,-1.604708880E-1,-5.256684422E-1,-7.251229882E-1,9.098799729E-1
1.272669833E1,-3.333542347E-1,-6.035722494E-1,-7.056025863E-1,9.865594335E-1
1.273670033E1,-4.771797359E-1,-7.122405171E-1,-6.831608415E-1,1.096218860E0
1.274670333E1,-5.754876733E-1,-8.483104706E-1,-6.481461525E-1,1.212810847E0
1.275670633E1,-6.306625009E-1,-9.282441735E-1,-6.027246118E-1,1.273832561E0
1.276670933E1,-6.454166770E-1,-9.693806767E-1,-5.416191816E-1,1.284372579E0
1.277671233E1,-6.215125322E-1,-9.430532455E-1,-4.795258641E-1,1.227017647E0
1.278671433E1,-5.368674397E-1,-7.883182764E-1,-4.654124379E-1,1.061263912E0
1.279671733E1,-4.051040113E-1,-5.596279502E-1,-4.969763160E-1,8.510453344E-1
1.280672033E1,-2.623300850E-1,-3.095012009E-1,-5.444396734E-1,6.789864689E-1
1.281672333E1,-1.078827307E-1,-8.781848848E-2,-5.793055892E-1,5.957732255E-1
1.282672633E1,2.253280021E-2,1.685359702E-2,-5.832880735E-1,5.839663925E-1
1.283672833E1,1.072549075E-1,2.991856635E-2,-5.578029156E-1,5.688082528E-1
1.284673133E1,1.587977260E-1,-3.617602959E-2,-5.056065917E-1,5.311905953E-1
1.285673433E1,1.738741547E-1,-1.156165302E-1,-4.474779963E-1,4.937974898E-1
1.286673733E1,1.522484869E-1,-1.786056012E-1,-3.823341429E-1,4.486189467E-1
1.287673933E1,8.587146550E-2,-2.363136411E-1,-3.130698800E-1,4.015355468E-1
1.288674233E1,-1.081698947E-2,-3.150800765E-1,-2.449310124E-1,3.992288350E-1
1.289674533E1,-1.350202560E-1,-4.051426947E-1,-1.850720942E-1,4.654274945E-1
1.290674833E1,-2.771148086E-1,-5.283544064E-1,-1.442034841E-1,6.137960905E-1
1.291675133E1,-4.358752370E-1,-6.739060283E-1,-1.455111355E-1,8.156654018E-1
1.292675333E1,-6.389535069E-1,-7.319086194E-1,-1.240998507E-1,9.794654584E-1
1.293675633E1,-7.920316458E-1,-7.931085229E-1,-1.019013301E-1,1.125486179E0
1.294675933E1,-8.594991565E-1,-8.492609859E-1,-7.427183539E-2,1.210578096E0
1.295676233E1,-8.083053827E-1,-7.448795438E-1,-4.884513840E-2,1.100267683E0
1.296676533E1,-6.852745414E-1,-4.108824134E-1,-5.330007523E-2,8.007911418E-1
1.297676733E1,-5.298144221E-1,3.012346029E-1,-7.520537078E-2,6.140858700E-1
1.298677033E1,-3.444959223E-1,1.137893319E0,-1.258885264E-1,1.195544465E0
1.299677333E1,-1.467153281E-1,1.766846895E0,-1.921953410E-1,1.783315000E0
1.300677633E1,-8.927909657E-3,2.045896053E0,-2.485318482E-1,2.060955712E0
1.301677833E1,1.778712124E-2,2.025122166E0,-2.689130306E-1,2.042975865E0
1.302678133E1,-1.003760025E-1,1.791830420E0,-2.139366120E-1,1.807346251E0
1.303678433E1,-3.081708252E-1,1.506731987E0,-8.812806010E-2,1.540447043E0
1.304678733E1,-5.186308622E-1,1.289343715E0,1.297877580E-1,1.395790116E0
1.305679033E1,-6.956852078E-1,1.033730507E0,3.456434906E-1,1.293076213E0
1.306679233E1,-7.868257761E-1,7.455162406E-1,4.500687122E-1,1.173648633E0
1.307679533E1,-7.967928648E-1,5.915591717E-1,4.356302023E-1,1.083787247E0
1.308679833E1,-6.439815164E-1,4.425723851E-1,3.152318895E-1,8.425874753E-1
1.309680133E1,-3.493205011E-1,3.579143882E-1,1.652134657E-1,5.267096078E-1
1.310680333E1,7.665053010E-3,3.362924457E-1,4.246623814E-2,3.390497654E-1
1.311680633E1,3.538617790E-1,3.667263091E-1,-8.790248632E-2,5.171394314E-1
1.312680933E1,6.435095668E-1,4.205636978E-1,-2.637345195E-1,8.127326025E-1
1.313681233E1,8.760331273E-1,5.075297356E-1,-4.104997218E-1,1.092488212E0
1.314681533E1,1.029222250E0,6.357125044E-1,-5.243026018E-1,1.318454416E0
1.315681733E1,1.117999196E0,7.515918016E-1,-5.918153524E-1,1.471413555E0
1.316682033E1,1.155158877E0,8.327414989E-1,-5.787557364E-1,1.537143012E0
1.317682333E1,1.142217994E0,8.929762244E-1,-5.155333877E-1,1.538779762E0
1.318682633E1,1.080308795E0,9.071636796E-1,-3.811787665E-1,1.461270093E0
1.319682833E1,9.832977653E-1,8.301715255E-1,-1.265369952E-1,1.293085793E0
1.320683133E1,8.288133740E-1,7.203637958E-1,1.698142439E-1,1.111167172E0
1.321683433E1,6.008430719E-1,6.153919101E-1,4.471856654E-1,9.693784707E-1
1.322683733E1,3.282027245E-1,3.796049356E-1,6.421937346E-1,8.150029008E-1
1.323684033E1,1.098115444E-1,1.380843222E-1,6.336113214E-1,6.577151070E-1
1.324684233E1,-3.516961634E-2,-3.621185571E-2,4.874069095E-1,4.900139751E-1
1.325684533E1,-1.199804768E-1,-2.165571004E-1,3.280105591E-1,4.109540357E-1
1.326684833E1,-1.621726751E-1,-3.334240615E-1,2.355338782E-1,4.392582261E-1
1.327685133E1,-1.553095281E-1,-3.269354999E-1,1.980800629E-1,4.126058433E-1
1.328685433E1,-9.943081439E-2,-3.014881909E-1,1.902929842E-1,3.701257029E-1
1.329685633E1,-2.252343297E-2,-2.430495620E-1,1.812315732E-1,3.040152591E-1
1.330685933E1,7.635493577E-2,-1.877122670E-1,1.637252867E-1,2.605224384E-1
1.331686233E1,1.834839135E-1,-1.206128597E-1,1.481161267E-1,2.648625973E-1
1.332686533E1,2.770724893E-1,-5.904031172E-2,1.380917281E-1,3.151574973E-1
1.333686733E1,3.525083959E-1,-6.845674943E-3,1.354242116E-1,3.776886940E-1
1.334687033E1,4.114904702E-1,1.693395711E-2,1.367070526E-1,4.339354608E-1
1.335687333E1,4.390598536E-1,1.863114163E-2,1.322901249E-1,4.589350189E-1
1.336687633E1,4.111603200E-1,1.959360950E-2,1.169170365E-1,4.279092330E-1
1.337687933E1,3.264329731E-1,7.944453508E-3,8.389455825E-2,3.371348353E-1
1.338688133E1,2.038652301E-1,-3.374173865E-2,4.105814546E-2,2.106782102E-1
1.339688433E1,7.713296264E-2,-5.247617140E-2,-3.534104209E-3,9.335808687E-2
1.340688733E1,-3.188508097E-3,-4.591014981E-2,-4.184687138E-2,6.220184148E-2
1.341689033E1,-2.009109780E-2,-1.499208808E-2,-7.293847948E-2,7.712610910E-2
1.342689233E1,1.272463799E-2,2.047109604E-2,-9.952561557E-2,1.024027848E-1
1.343689533E1,9.543242306E-2,6.256900728E-2,-1.199887991E-1,1.655884656E-1
1.344689833E1,1.958162785E-1,1.573165506E-1,-1.625653058E-1,2.991989149E-1
1.345690133E1,2.644407749E-1,2.248898894E-1,-1.995726675E-1,4.004168270E-1
1.346690433E1,2.720491588E-1,2.383636087E-1,-2.153351307E-1,4.209479460E-1
1.347690633E1,-6.563004851E-2,2.276566774E-1,-1.690314561E-1,2.910438097E-1
1.348690933E1,-2.419353127E-1,-1.531607062E-1,-1.132728532E-1,3.079312208E-1
1.349691233E1,-2.951587141E-1,-3.951577544E-1,-8.754813671E-2,5.009321247E-1
1.350691533E1,-2.076147199E-1,-5.302934647E-1,-7.500358671E-2,5.744045339E-1
1.351691733E1,-4.628750682E-2,-6.476070881E-1,-6.335091591E-2,6.523425575E-1
1.352692033E1,1.482292563E-1,-6.930744052E-1,-7.690214366E-2,7.129081170E-1
1.353692333E1,3.238672912E-1,-7.278650999E-1,-8.897937089E-2,8.016202058E-1
1.354692633E1,3.731807768E-1,-7.803463936E-1,-8.962918073E-2,8.696193283E-1
1.355692933E1,2.254904956E-1,-8.762419820E-1,-1.045700684E-1,9.108133035E-1